trial,response,stimFile,prac_trials.thisRepN,prac_trials.thisTrialN,prac_trials.thisN,prac_trials.thisIndex,trials.thisRepN,trials.thisTrialN,trials.thisN,trials.thisIndex,text.started,text.stopped,text_3.started,text_3.stopped,sound_p.started,sound_p.stopped,fixation.started,fixation.stopped,key_resp.keys,key_resp.started,key_resp.stopped,key_resp.rt,text_2.started,text_2.stopped,key_resp_3.keys,key_resp_3.rt,key_resp_3.started,key_resp_3.stopped,sound_1.started,sound_1.stopped,fix.started,fix.stopped,key_resp_2.keys,key_resp_2.rt,key_resp_2.started,key_resp_2.stopped,text_4.started,text_4.stopped,slider_2.response,slider_2.rt,slider_2.started,slider_2.stopped,text_5.started,text_5.stopped,participant,session,date,expName,psychopyVersion,frameRate,
3,go,piano_min40db.wav,0,0,0,2,,,,,82.03556149988435,None,87.01476359996013,None,89.06488727992401,None,89.07973050000146,None,None,89.07973050000146,90.58183109993115,,,,,,,,,,,,,,,,,,,,,,,,002,001,2021_Dec_01_1411,psychophysicsHKA,2021.2.3,60.00870123013102,
4,go,piano_min50db.wav,0,1,1,3,,,,,,,,,91.01511592005845,None,91.0204739999026,None,None,91.0204739999026,92.53157710004598,,,,,,,,,,,,,,,,,,,,,,,,002,001,2021_Dec_01_1411,psychophysicsHKA,2021.2.3,60.00870123013102,
7,nogo,silent.wav,0,2,2,6,,,,,,,,,93.0317388399504,None,93.02638290007599,None,None,93.02638290007599,94.53163230000064,,,,,,,,,,,,,,,,,,,,,,,,002,001,2021_Dec_01_1411,psychophysicsHKA,2021.2.3,60.00870123013102,
2,go,piano_min30db.wav,0,3,3,1,,,,,,,,,95.03178833997808,None,95.02608389989473,None,space,95.02608389989473,None,1.1297558001242578,,,,,,,,,,,,,,,,,,,,,,,002,001,2021_Dec_01_1411,psychophysicsHKA,2021.2.3,60.00870123013102,
6,nogo,silent.wav,0,4,4,5,,,,,,,,,96.19833464003167,None,96.19774880004115,None,None,96.19774880004115,97.69853759999387,,,,,,,,,,,,,,,,,,,,,,,,002,001,2021_Dec_01_1411,psychophysicsHKA,2021.2.3,60.00870123013102,
1,go,piano_min20db.wav,0,5,5,0,,,,,,,,,98.21528914002701,98.21824000007473,98.21824000007473,98.21824000007473,space,98.21824000007473,None,0.8175383000634611,,,,,,,,,,,,,,,,,,,,,,,002,001,2021_Dec_01_1411,psychophysicsHKA,2021.2.3,60.00870123013102,
8,nogo,silent.wav,0,6,6,7,,,,,,,,,99.08171093990094,None,99.07795439986512,None,None,99.07795439986512,100.58191589987837,,,,,,,,,,,,,,,,,,,,,,,,002,001,2021_Dec_01_1411,psychophysicsHKA,2021.2.3,60.00870123013102,
5,nogo,silent.wav,0,7,7,4,,,,,,,,,101.09835473997518,101.09732949989848,101.09732949989848,101.09732949989848,None,101.09732949989848,102.59858940006234,,,,,,,,,,,,,,,,,,,,,,,,002,001,2021_Dec_01_1411,psychophysicsHKA,2021.2.3,60.00870123013102,
4,go,piano_min50db.wav,1,0,8,3,,,,,,,,,103.11522744004614,103.1129342999775,103.1129342999775,103.1129342999775,None,103.1129342999775,104.61510160006583,,,,,,,,,,,,,,,,,,,,,,,,002,001,2021_Dec_01_1411,psychophysicsHKA,2021.2.3,60.00870123013102,
2,go,piano_min30db.wav,1,1,9,1,,,,,,,,,105.13188423998653,105.12634369987063,105.12634369987063,105.12634369987063,space,105.12634369987063,None,0.7892917999997735,,,,,,,,,,,,,,,,,,,,,,,002,001,2021_Dec_01_1411,psychophysicsHKA,2021.2.3,60.00870123013102,
8,nogo,silent.wav,1,2,10,7,,,,,,,,,105.94823713987134,None,105.94482209999114,None,None,105.94482209999114,107.44877370004542,,,,,,,,,,,,,,,,,,,,,,,,002,001,2021_Dec_01_1411,psychophysicsHKA,2021.2.3,60.00870123013102,
7,nogo,silent.wav,1,3,11,6,,,,,,,,,107.96546524008735,107.96348510007374,107.96348510007374,107.96348510007374,None,107.96348510007374,109.46503679989837,,,,,,,,,,,,,,,,,,,,,,,,002,001,2021_Dec_01_1411,psychophysicsHKA,2021.2.3,60.00870123013102,
3,go,piano_min40db.wav,1,4,12,2,,,,,,,,,109.98185384008102,109.97598610003479,109.97598610003479,109.97598610003479,space,109.97598610003479,None,0.7560761000495404,,,,,,,,,,,,,,,,,,,,,,,002,001,2021_Dec_01_1411,psychophysicsHKA,2021.2.3,60.00870123013102,
5,nogo,silent.wav,1,5,13,4,,,,,,,,,110.76527353995479,None,110.76525410008617,None,None,110.76525410008617,112.26500650006346,,,,,,,,,,,,,,,,,,,,,,,,002,001,2021_Dec_01_1411,psychophysicsHKA,2021.2.3,60.00870123013102,
6,nogo,silent.wav,1,6,14,5,,,,,,,,,112.78211604002863,112.77889660000801,112.77889660000801,112.77889660000801,None,112.77889660000801,114.28185519995168,,,,,,,,,,,,,,,,,,,,,,,,002,001,2021_Dec_01_1411,psychophysicsHKA,2021.2.3,60.00870123013102,
1,go,piano_min20db.wav,1,7,15,0,,,,,,,,,114.79831254007294,114.79463530005887,114.79463530005887,114.79463530005887,space,114.79463530005887,None,0.7533122000750154,,,,,,,,,,,,,,,,,,,,,,,002,001,2021_Dec_01_1411,psychophysicsHKA,2021.2.3,60.00870123013102,
,,,,,,,,,,,,,,,,,,,,,,,115.56824569986202,None,space,13.947466500103474,115.56824569986202,None,,,,,,,,,,,,,,,,,002,001,2021_Dec_01_1411,psychophysicsHKA,2021.2.3,60.00870123013102,
1,go,piano_min20db.wav,,,,,0,0,0,0,,,,,,,,,,,,,,,,,,,129.56500335989986,None,129.56329050008208,None,space,0.7524739999789745,129.56329050008208,None,130.36676510004327,None,4.0,7.955294599989429,130.36676510004327,None,,,002,001,2021_Dec_01_1411,psychophysicsHKA,2021.2.3,60.00870123013102,
7,nogo,silent.wav,,,,,0,1,1,6,,,,,,,,,,,,,,,,,,,138.33357524001042,None,138.3332046000287,None,None,,138.3332046000287,139.84839889989235,140.3488509999588,None,-0.0,2.061350799864158,140.3488509999588,None,,,002,001,2021_Dec_01_1411,psychophysicsHKA,2021.2.3,60.00870123013102,
5,nogo,silent.wav,,,,,0,2,2,4,,,,,,,,,,,,,,,,,,,142.41727471987252,None,142.42441239999607,None,None,,142.42441239999607,143.93163500004448,144.44752250006422,None,0.0,1.4230554001405835,144.44752250006422,None,,,002,001,2021_Dec_01_1411,psychophysicsHKA,2021.2.3,60.00870123013102,
4,go,piano_min50db.wav,,,,,0,3,3,3,,,,,,,,,,,,,,,,,,,145.8835469198646,None,145.88999460008927,None,None,,145.88999460008927,147.39850799995475,147.9013386000879,None,-0.0,2.7351076998747885,147.9013386000879,None,,,002,001,2021_Dec_01_1411,psychophysicsHKA,2021.2.3,60.00870123013102,
8,nogo,silent.wav,,,,,0,4,4,7,,,,,,,,,,,,,,,,,,,150.6501800199738,None,150.65570449992083,None,None,,150.65570449992083,152.16518809995614,152.6808370000217,None,0.0,0.8580511999316514,152.6808370000217,None,,,002,001,2021_Dec_01_1411,psychophysicsHKA,2021.2.3,60.00870123013102,
3,go,piano_min40db.wav,,,,,0,5,5,2,,,,,,,,,,,,,,,,,,,153.5502868199954,None,153.55568709992804,None,None,,153.55568709992804,155.06500290008262,155.59213200001977,None,1.0,0.8729280999395996,155.59213200001977,None,,,002,001,2021_Dec_01_1411,psychophysicsHKA,2021.2.3,60.00870123013102,
2,go,piano_min30db.wav,,,,,0,6,6,1,,,,,,,,,,,,,,,,,,,156.4672757199267,None,156.47289069998078,None,space,1.010992200113833,156.47289069998078,None,157.5197165000718,None,2.0,1.4855673999991268,157.5197165000718,None,,,002,001,2021_Dec_01_1411,psychophysicsHKA,2021.2.3,60.00870123013102,
6,nogo,silent.wav,,,,,0,7,7,5,,,,,,,,,,,,,,,,,,,159.01700841991698,None,159.02274819999002,None,None,,159.02274819999002,160.53220969997346,161.0478366999887,None,0.0,0.9400409001391381,161.0478366999887,None,,,002,001,2021_Dec_01_1411,psychophysicsHKA,2021.2.3,60.00870123013102,
7,nogo,silent.wav,,,,,1,0,8,6,,,,,,,,,,,,,,,,,,,162.01687914007346,None,162.00692890002392,None,None,,162.00692890002392,163.51506010000594,164.02280350006185,None,0.0,1.6312470000702888,164.02280350006185,None,,,002,001,2021_Dec_01_1411,psychophysicsHKA,2021.2.3,60.00870123013102,
8,nogo,silent.wav,,,,,1,1,9,7,,,,,,,,,,,,,,,,,,,165.66691162001808,None,165.67268160008825,None,None,,165.67268160008825,167.18165219994262,167.70589379989542,None,0.0,0.7208910000044852,167.70589379989542,None,,,002,001,2021_Dec_01_1411,psychophysicsHKA,2021.2.3,60.00870123013102,
3,go,piano_min40db.wav,,,,,1,2,10,2,,,,,,,,,,,,,,,,,,,168.43354862004054,None,168.43944170000032,None,space,1.3483235000167042,168.43944170000032,None,169.83410319988616,None,1.0,2.155984800076112,169.83410319988616,None,,,002,001,2021_Dec_01_1411,psychophysicsHKA,2021.2.3,60.00870123013102,
5,nogo,silent.wav,,,,,1,3,11,4,,,,,,,,,,,,,,,,,,,172.00036122004968,None,172.00540999998339,None,None,,172.00540999998339,173.51545589999296,174.03000040003099,None,1.0,0.9443190000019968,174.03000040003099,None,,,002,001,2021_Dec_01_1411,psychophysicsHKA,2021.2.3,60.00870123013102,
4,go,piano_min50db.wav,,,,,1,4,12,3,,,,,,,,,,,,,,,,,,,174.9834086199524,None,174.99004149995744,None,space,1.1816767000127584,174.99004149995744,None,176.22316009993665,None,1.0,0.7876905999146402,176.22316009993665,None,,,002,001,2021_Dec_01_1411,psychophysicsHKA,2021.2.3,60.00870123013102,
1,go,piano_min20db.wav,,,,,1,5,13,0,,,,,,,,,,,,,,,,,,,177.01699242002798,None,177.02266720007174,None,space,1.1650455999188125,177.02266720007174,None,178.22404500003904,None,3.0,0.946853999979794,178.22404500003904,None,,,002,001,2021_Dec_01_1411,psychophysicsHKA,2021.2.3,60.00870123013102,
2,go,piano_min30db.wav,,,,,1,6,14,1,,,,,,,,,,,,,,,,,,,179.18310492003803,None,179.1899601998739,None,space,0.7258659999351948,179.1899601998739,None,179.95337069989182,None,2.0,0.9866172999609262,179.95337069989182,None,,,002,001,2021_Dec_01_1411,psychophysicsHKA,2021.2.3,60.00870123013102,
6,nogo,silent.wav,,,,,1,7,15,5,,,,,,,,,,,,,,,,,,,180.95044552006294,None,180.95681579993106,None,None,,180.95681579993106,182.46525659994222,182.99694660003297,None,-0.0,0.9548124000430107,182.99694660003297,None,,,002,001,2021_Dec_01_1411,psychophysicsHKA,2021.2.3,60.00870123013102,
2,go,piano_min30db.wav,,,,,2,0,16,1,,,,,,,,,,,,,,,,,,,183.9510753199691,None,183.9573244000785,None,space,0.8544230000115931,183.9573244000785,None,184.8551695998758,None,2.0,1.1023820999544114,184.8551695998758,None,,,002,001,2021_Dec_01_1411,psychophysicsHKA,2021.2.3,60.00870123013102,
8,nogo,silent.wav,,,,,2,1,17,7,,,,,,,,,,,,,,,,,,,185.9677331199171,None,185.9731344000902,None,None,,185.9731344000902,187.48195179994218,188.00594589998946,None,-0.0,0.7384507001843303,188.00594589998946,None,,,002,001,2021_Dec_01_1411,psychophysicsHKA,2021.2.3,60.00870123013102,
3,go,piano_min40db.wav,,,,,2,2,18,2,,,,,,,,,,,,,,,,,,,188.75078382000794,None,188.75646999990568,None,space,0.7593033998273313,188.75646999990568,None,189.5408175000921,None,1.0,0.9980401999782771,189.5408175000921,None,,,002,001,2021_Dec_01_1411,psychophysicsHKA,2021.2.3,60.00870123013102,
1,go,piano_min20db.wav,,,,,2,3,19,0,,,,,,,,,,,,,,,,,,,190.55023362005596,None,190.5564846000634,None,space,0.6712307000998408,190.5564846000634,None,191.25630789995193,None,3.0,1.1979032000526786,191.25630789995193,None,,,002,001,2021_Dec_01_1411,psychophysicsHKA,2021.2.3,60.00870123013102,
7,nogo,silent.wav,,,,,2,4,20,6,,,,,,,,,,,,,,,,,,,192.47986991989893,194.48171700001694,192.4859380000271,None,None,,192.4859380000271,193.99851870001294,194.51510429987684,None,-0.0,0.8606537999585271,194.51510429987684,None,,,002,001,2021_Dec_01_1411,psychophysicsHKA,2021.2.3,60.00870123013102,
6,nogo,silent.wav,,,,,2,5,21,5,,,,,,,,,,,,,,,,,,,195.3848106200574,None,195.3907147999853,None,None,,195.3907147999853,196.89858020003885,197.4160847000312,None,-0.0,0.805552100064233,197.4160847000312,None,,,002,001,2021_Dec_01_1411,psychophysicsHKA,2021.2.3,60.00870123013102,
5,nogo,silent.wav,,,,,2,6,22,4,,,,,,,,,,,,,,,,,,,198.23320251989645,None,198.24001449998468,None,None,,198.24001449998468,199.74857140006498,200.26530690002255,None,-0.0,0.6951174999121577,200.26530690002255,None,,,002,001,2021_Dec_01_1411,psychophysicsHKA,2021.2.3,60.00870123013102,
4,go,piano_min50db.wav,,,,,2,7,23,3,,,,,,,,,,,,,,,,,,,200.96730122000446,None,200.97355100000277,None,None,,200.97355100000277,202.48192130005918,203.00021309987642,None,0.0,0.6075649000704288,203.00021309987642,None,,,002,001,2021_Dec_01_1411,psychophysicsHKA,2021.2.3,60.00870123013102,
6,nogo,silent.wav,,,,,3,0,24,5,,,,,,,,,,,,,,,,,,,203.61714841991198,None,203.62304569990374,None,None,,203.62304569990374,205.1321751999203,205.63736309995875,None,-0.0,0.7838075999170542,205.63736309995875,None,,,002,001,2021_Dec_01_1411,psychophysicsHKA,2021.2.3,60.00870123013102,
8,nogo,silent.wav,,,,,3,1,25,7,,,,,,,,,,,,,,,,,,,206.43366361998488,None,206.4392045000568,None,None,,206.4392045000568,207.94850729987957,208.46505760005675,None,0.0,0.8738583999220282,208.46505760005675,None,,,002,001,2021_Dec_01_1411,psychophysicsHKA,2021.2.3,60.00870123013102,
7,nogo,silent.wav,,,,,3,2,26,6,,,,,,,,,,,,,,,,,,,209.35025971995202,None,209.35631699999794,None,None,,209.35631699999794,210.8651222998742,211.3852176000364,None,-0.0,0.890841799788177,211.3852176000364,None,,,002,001,2021_Dec_01_1411,psychophysicsHKA,2021.2.3,60.00870123013102,
5,nogo,silent.wav,,,,,3,3,27,4,,,,,,,,,,,,,,,,,,,212.2833816200262,None,212.28939120005816,None,None,,212.28939120005816,213.79871689993888,214.3135087999981,None,0.0,1.1915821000002325,214.3135087999981,None,,,002,001,2021_Dec_01_1411,psychophysicsHKA,2021.2.3,60.00870123013102,
3,go,piano_min40db.wav,,,,,3,4,28,2,,,,,,,,,,,,,,,,,,,215.51706912002993,None,215.52260020002723,None,space,0.8735559000633657,215.52260020002723,None,216.43893339997157,None,1.0,1.1703518000431359,216.43893339997157,None,,,002,001,2021_Dec_01_1411,psychophysicsHKA,2021.2.3,60.00870123013102,
2,go,piano_min30db.wav,,,,,3,5,29,1,,,,,,,,,,,,,,,,,,,217.6176602200838,None,217.62476620008238,None,space,0.8030231001321226,217.62476620008238,None,218.47422900004312,None,2.0,0.7228826999198645,218.47422900004312,None,,,002,001,2021_Dec_01_1411,psychophysicsHKA,2021.2.3,60.00870123013102,
1,go,piano_min20db.wav,,,,,3,6,30,0,,,,,,,,,,,,,,,,,,,219.20101961989423,None,219.20765080000274,None,space,0.6922565000131726,219.20765080000274,None,219.94916129997,None,4.0,1.0143148000352085,219.94916129997,None,,,002,001,2021_Dec_01_1411,psychophysicsHKA,2021.2.3,60.00870123013102,
4,go,piano_min50db.wav,,,,,3,7,31,3,,,,,,,,,,,,,,,,,,,220.967166320025,None,220.97276120004244,None,None,,220.97276120004244,222.48216419992968,222.99873419990763,None,0.0,0.8076468000654131,222.99873419990763,None,,,002,001,2021_Dec_01_1411,psychophysicsHKA,2021.2.3,60.00870123013102,
7,nogo,silent.wav,,,,,4,0,32,6,,,,,,,,,,,,,,,,,,,223.8175658200169,None,223.8230361000169,None,None,,223.8230361000169,225.33215270005167,225.85229399986565,None,-0.0,0.5734318001195788,225.85229399986565,None,,,002,001,2021_Dec_01_1411,psychophysicsHKA,2021.2.3,60.00870123013102,
2,go,piano_min30db.wav,,,,,4,1,33,1,,,,,,,,,,,,,,,,,,,226.4336082200287,None,226.43964469991624,None,space,0.7882886999286711,226.43964469991624,None,227.2699497998692,None,2.0,0.780488699907437,227.2699497998692,None,,,002,001,2021_Dec_01_1411,psychophysicsHKA,2021.2.3,60.00870123013102,
1,go,piano_min20db.wav,,,,,4,2,34,0,,,,,,,,,,,,,,,,,,,228.05962131994312,None,228.06533390004188,None,space,0.6665182998403907,228.06533390004188,None,228.7732774000615,None,4.0,1.019514000043273,228.7732774000615,None,,,002,001,2021_Dec_01_1411,psychophysicsHKA,2021.2.3,60.00870123013102,
3,go,piano_min40db.wav,,,,,4,3,35,2,,,,,,,,,,,,,,,,,,,229.80080531986897,None,229.80616539996117,None,space,0.7814950000029057,229.80616539996117,None,230.64062749990262,None,1.0,0.9879944999702275,230.64062749990262,None,,,002,001,2021_Dec_01_1411,psychophysicsHKA,2021.2.3,60.00870123013102,
8,nogo,silent.wav,,,,,4,4,36,7,,,,,,,,,,,,,,,,,,,231.63342032006477,None,231.64058530004695,None,None,,231.64058530004695,233.14846990001388,233.6630126000382,None,-0.0,0.7780744000338018,233.6630126000382,None,,,002,001,2021_Dec_01_1411,psychophysicsHKA,2021.2.3,60.00870123013102,
5,nogo,silent.wav,,,,,4,5,37,4,,,,,,,,,,,,,,,,,,,234.45017551986967,None,234.45669939997606,None,None,,234.45669939997606,235.96510339993984,236.4867990000639,None,-0.0,0.5925988999661058,236.4867990000639,None,,,002,001,2021_Dec_01_1411,psychophysicsHKA,2021.2.3,60.00870123013102,
6,nogo,silent.wav,,,,,4,6,38,5,,,,,,,,,,,,,,,,,,,237.08353861987126,None,237.0895048000384,None,None,,237.0895048000384,238.59868300007656,239.11641820007935,None,-0.0,0.6070318999700248,239.11641820007935,None,,,002,001,2021_Dec_01_1411,psychophysicsHKA,2021.2.3,60.00870123013102,
4,go,piano_min50db.wav,,,,,4,7,39,3,,,,,,,,,,,,,,,,,,,239.7333768199431,None,239.73997080000117,None,None,,239.73997080000117,241.2484782000538,241.76432499988005,None,-0.0,0.6261517000384629,241.76432499988005,None,,,002,001,2021_Dec_01_1411,psychophysicsHKA,2021.2.3,60.00870123013102,
6,nogo,silent.wav,,,,,5,0,40,5,,,,,,,,,,,,,,,,,,,242.4002762200078,None,242.40685139992274,None,None,,242.40685139992274,243.91546249995008,244.4353358000517,None,-0.0,0.4890082001220435,244.4353358000517,None,,,002,001,2021_Dec_01_1411,psychophysicsHKA,2021.2.3,60.00870123013102,
3,go,piano_min40db.wav,,,,,5,1,41,2,,,,,,,,,,,,,,,,,,,244.93321322004778,None,244.9387990999967,None,space,0.8490345999598503,244.9387990999967,None,245.84012950002216,None,1.0,0.801747600082308,245.84012950002216,None,,,002,001,2021_Dec_01_1411,psychophysicsHKA,2021.2.3,60.00870123013102,
7,nogo,silent.wav,,,,,5,2,42,6,,,,,,,,,,,,,,,,,,,246.65041141987314,None,246.65592869999819,None,None,,246.65592869999819,248.1651643998921,248.67314859991893,None,0.0,0.7636991001199931,248.67314859991893,None,,,002,001,2021_Dec_01_1411,psychophysicsHKA,2021.2.3,60.00870123013102,
2,go,piano_min30db.wav,,,,,5,3,43,1,,,,,,,,,,,,,,,,,,,249.45011172008236,None,249.45648619998246,None,space,0.6992363000754267,249.45648619998246,None,250.2084778000135,None,2.0,0.88321220013313,250.2084778000135,None,,,002,001,2021_Dec_01_1411,psychophysicsHKA,2021.2.3,60.00870123013102,
1,go,piano_min20db.wav,,,,,5,4,44,0,,,,,,,,,,,,,,,,,,,251.10005361989607,None,251.1065809999127,None,space,0.6651580999605358,251.1065809999127,None,251.81716099986807,None,4.0,1.139685899950564,251.81716099986807,None,,,002,001,2021_Dec_01_1411,psychophysicsHKA,2021.2.3,60.00870123013102,
4,go,piano_min50db.wav,,,,,5,5,45,3,,,,,,,,,,,,,,,,,,,252.96689881996718,None,252.9726495000068,None,None,,252.9726495000068,254.48151519987732,255.00186369987205,None,-0.0,1.0720712998881936,255.00186369987205,None,,,002,001,2021_Dec_01_1411,psychophysicsHKA,2021.2.3,60.00870123013102,
5,nogo,silent.wav,,,,,5,6,46,4,,,,,,,,,,,,,,,,,,,256.0837525199866,None,256.08998669986613,None,None,,256.08998669986613,257.59837440005504,258.1146130000707,None,0.0,0.5264296000823379,258.1146130000707,None,,,002,001,2021_Dec_01_1411,psychophysicsHKA,2021.2.3,60.00870123013102,
8,nogo,silent.wav,,,,,5,7,47,7,,,,,,,,,,,,,,,,,,,258.6499318199465,260.64892089995556,258.655985099962,None,None,,258.655985099962,260.16530840005726,260.6858095000498,None,-0.0,0.8051451998762786,260.6858095000498,None,,,002,001,2021_Dec_01_1411,psychophysicsHKA,2021.2.3,60.00870123013102,
3,go,piano_min40db.wav,,,,,6,0,48,2,,,,,,,,,,,,,,,,,,,261.50144321990666,None,261.5078799999319,None,space,0.9198713998775929,261.5078799999319,None,262.4689839000348,None,1.0,0.872755300020799,262.4689839000348,None,,,002,001,2021_Dec_01_1411,psychophysicsHKA,2021.2.3,60.00870123013102,
1,go,piano_min20db.wav,,,,,6,1,49,0,,,,,,,,,,,,,,,,,,,263.35029921990355,None,263.35579820000567,None,space,0.6722725001163781,263.35579820000567,None,264.0702959999908,None,4.0,0.9713665000163019,264.0702959999908,None,,,002,001,2021_Dec_01_1411,psychophysicsHKA,2021.2.3,60.00870123013102,
6,nogo,silent.wav,,,,,6,2,50,5,,,,,,,,,,,,,,,,,,,265.04998371989933,None,265.0569082000293,None,None,,265.0569082000293,266.5652479000855,267.0722213999834,None,0.0,1.0149415000341833,267.0722213999834,None,,,002,001,2021_Dec_01_1411,psychophysicsHKA,2021.2.3,60.00870123013102,
7,nogo,silent.wav,,,,,6,3,51,6,,,,,,,,,,,,,,,,,,,268.0999367200537,None,268.1053977999836,None,None,,268.1053977999836,269.6152333000209,270.13381589995697,None,0.0,0.6281556999310851,270.13381589995697,None,,,002,001,2021_Dec_01_1411,psychophysicsHKA,2021.2.3,60.00870123013102,
5,nogo,silent.wav,,,,,6,4,52,4,,,,,,,,,,,,,,,,,,,270.76695882000496,None,270.77300789998844,None,None,,270.77300789998844,272.2817921000533,272.7983776999172,None,0.0,0.7436132000293583,272.7983776999172,None,,,002,001,2021_Dec_01_1411,psychophysicsHKA,2021.2.3,60.00870123013102,
8,nogo,silent.wav,,,,,6,5,53,7,,,,,,,,,,,,,,,,,,,273.55008122005967,None,273.5560260999482,None,None,,273.5560260999482,275.06532769999467,275.591767600039,None,0.0,0.5843464001081884,275.591767600039,None,,,002,001,2021_Dec_01_1411,psychophysicsHKA,2021.2.3,60.00870123013102,
2,go,piano_min30db.wav,,,,,6,6,54,1,,,,,,,,,,,,,,,,,,,276.1838403200498,None,276.1896742999088,None,space,0.8299830998294055,276.1896742999088,None,277.06993019999936,None,2.0,1.054147900082171,277.06993019999936,None,,,002,001,2021_Dec_01_1411,psychophysicsHKA,2021.2.3,60.00870123013102,
4,go,piano_min50db.wav,,,,,6,7,55,3,,,,,,,,,,,,,,,,,,,278.1332564198645,None,278.1399401000235,None,space,0.8316931999288499,278.1399401000235,None,279.01322910003364,None,1.0,0.6933338998351246,279.01322910003364,None,,,002,001,2021_Dec_01_1411,psychophysicsHKA,2021.2.3,60.00870123013102,
3,go,piano_min40db.wav,,,,,7,0,56,2,,,,,,,,,,,,,,,,,,,279.7169461199781,None,279.7222104999237,None,space,0.7374766001012176,279.7222104999237,None,280.5060902000405,None,1.0,0.7376711999531835,280.5060902000405,None,,,002,001,2021_Dec_01_1411,psychophysicsHKA,2021.2.3,60.00870123013102,
4,go,piano_min50db.wav,,,,,7,1,57,3,,,,,,,,,,,,,,,,,,,281.2509014199721,None,281.25622510001995,None,space,0.8196248000022024,281.25622510001995,None,282.11508630006574,None,1.0,0.5078604000154883,282.11508630006574,None,,,002,001,2021_Dec_01_1411,psychophysicsHKA,2021.2.3,60.00870123013102,
6,nogo,silent.wav,,,,,7,2,58,5,,,,,,,,,,,,,,,,,,,282.6332034199266,None,282.6398543000687,None,None,,282.6398543000687,284.14849739987403,284.6654582999181,None,-0.0,0.8755886000581086,284.6654582999181,None,,,002,001,2021_Dec_01_1411,psychophysicsHKA,2021.2.3,60.00870123013102,
7,nogo,silent.wav,,,,,7,3,59,6,,,,,,,,,,,,,,,,,,,285.5709381400608,None,285.5619453000836,None,None,,285.5619453000836,287.06511149997823,287.5880912998691,None,0.0,0.7996151000261307,287.5880912998691,None,,,002,001,2021_Dec_01_1411,psychophysicsHKA,2021.2.3,60.00870123013102,
8,nogo,silent.wav,,,,,7,4,60,7,,,,,,,,,,,,,,,,,,,288.38981681999286,None,288.3950258998666,None,None,,288.3950258998666,289.89875330007635,290.41355139994994,None,0.0,0.6428682000841945,290.41355139994994,None,,,002,001,2021_Dec_01_1411,psychophysicsHKA,2021.2.3,60.00870123013102,
2,go,piano_min30db.wav,,,,,7,5,61,1,,,,,,,,,,,,,,,,,,,291.066916619963,None,291.0726759999525,None,space,0.7470060999039561,291.0726759999525,None,291.86645910004154,None,2.0,0.6885985999833792,291.86645910004154,None,,,002,001,2021_Dec_01_1411,psychophysicsHKA,2021.2.3,60.00870123013102,
1,go,piano_min20db.wav,,,,,7,6,62,0,,,,,,,,,,,,,,,,,,,292.5671862199204,None,292.5731752999127,None,space,0.7346042999997735,292.5731752999127,None,293.35853269998915,None,3.0,0.671590100042522,293.35853269998915,None,,,002,001,2021_Dec_01_1411,psychophysicsHKA,2021.2.3,60.00870123013102,
5,nogo,silent.wav,,,,,7,7,63,4,,,,,,,,,,,,,,,,,,,294.0334823199781,None,294.03892909991555,None,None,,294.03892909991555,295.54872890003026,296.0645321998745,None,0.0,0.5270434999838471,296.0645321998745,None,,,002,001,2021_Dec_01_1411,psychophysicsHKA,2021.2.3,60.00870123013102,
,,,,,,,,,,,,,,,,,,,,,,,,,,,,,,,,,,,,,,,,,,,296.59953369991854,None,,,,,,,
