trial,response,stimFile,prac_trials.thisRepN,prac_trials.thisTrialN,prac_trials.thisN,prac_trials.thisIndex,trials.thisRepN,trials.thisTrialN,trials.thisN,trials.thisIndex,text.started,text.stopped,text_3.started,text_3.stopped,sound_p.started,sound_p.stopped,fixation.started,fixation.stopped,key_resp.keys,key_resp.started,key_resp.stopped,key_resp.rt,text_2.started,text_2.stopped,key_resp_3.keys,key_resp_3.rt,key_resp_3.started,key_resp_3.stopped,sound_1.started,sound_1.stopped,fix.started,fix.stopped,key_resp_2.keys,key_resp_2.rt,key_resp_2.started,key_resp_2.stopped,text_4.started,text_4.stopped,slider_2.response,slider_2.rt,slider_2.started,slider_2.stopped,text_5.started,text_5.stopped,participant,session,date,expName,psychopyVersion,frameRate,
8,nogo,silent.wav,0,0,0,7,,,,,19.935846199980006,None,24.927844599820673,None,26.961410229909234,None,26.968922199914232,None,None,26.968922199914232,28.478128099814057,,,,,,,,,,,,,,,,,,,,,,,,003,002,2021_Dec_01_1423,psychophysicsHKA,2021.2.3,59.92085654390152,
5,nogo,silent.wav,0,1,1,4,,,,,,,,,28.945137519855052,None,28.94370129983872,None,None,28.94370129983872,30.44485450000502,,,,,,,,,,,,,,,,,,,,,,,,003,002,2021_Dec_01_1423,psychophysicsHKA,2021.2.3,59.92085654390152,
6,nogo,silent.wav,0,2,2,5,,,,,,,,,30.944970019860193,None,30.942589399870485,None,None,30.942589399870485,32.44520629988983,,,,,,,,,,,,,,,,,,,,,,,,003,002,2021_Dec_01_1423,psychophysicsHKA,2021.2.3,59.92085654390152,
7,nogo,silent.wav,0,3,3,6,,,,,,,,,32.94510911987163,None,32.94415450002998,None,None,32.94415450002998,34.44496799982153,,,,,,,,,,,,,,,,,,,,,,,,003,002,2021_Dec_01_1423,psychophysicsHKA,2021.2.3,59.92085654390152,
2,go,piano_min30db.wav,0,4,4,1,,,,,,,,,34.9448223200161,None,34.94226279994473,None,space,34.94226279994473,None,0.8697906001470983,,,,,,,,,,,,,,,,,,,,,,,003,002,2021_Dec_01_1423,psychophysicsHKA,2021.2.3,59.92085654390152,
3,go,piano_min40db.wav,0,5,5,2,,,,,,,,,35.84536501998082,None,35.84387440001592,None,space,35.84387440001592,None,0.8484203999396414,,,,,,,,,,,,,,,,,,,,,,,003,002,2021_Dec_01_1423,psychophysicsHKA,2021.2.3,59.92085654390152,
4,go,piano_min50db.wav,0,6,6,3,,,,,,,,,36.728994119912386,38.72829949995503,36.732074399944395,None,None,36.732074399944395,38.245057799853384,,,,,,,,,,,,,,,,,,,,,,,,003,002,2021_Dec_01_1423,psychophysicsHKA,2021.2.3,59.92085654390152,
1,go,piano_min20db.wav,0,7,7,0,,,,,,,,,38.761654319940135,None,38.76102799992077,38.76102799992077,space,38.76102799992077,None,0.7152116000652313,,,,,,,,,,,,,,,,,,,,,,,003,002,2021_Dec_01_1423,psychophysicsHKA,2021.2.3,59.92085654390152,
3,go,piano_min40db.wav,1,0,8,2,,,,,,,,,39.51145651983097,None,39.51072729984298,None,space,39.51072729984298,None,0.9736035000532866,,,,,,,,,,,,,,,,,,,,,,,003,002,2021_Dec_01_1423,psychophysicsHKA,2021.2.3,59.92085654390152,
5,nogo,silent.wav,1,1,9,4,,,,,,,,,40.528515819925815,None,40.52768719987944,None,None,40.52768719987944,42.02831169986166,,,,,,,,,,,,,,,,,,,,,,,,003,002,2021_Dec_01_1423,psychophysicsHKA,2021.2.3,59.92085654390152,
2,go,piano_min30db.wav,1,2,10,1,,,,,,,,,42.545149019919336,42.54456239985302,42.54456239985302,42.54456239985302,space,42.54456239985302,None,0.7394050997681916,,,,,,,,,,,,,,,,,,,,,,,003,002,2021_Dec_01_1423,psychophysicsHKA,2021.2.3,59.92085654390152,
1,go,piano_min20db.wav,1,3,11,0,,,,,,,,,43.32845591986552,None,43.328905100002885,None,None,43.328905100002885,44.82829750003293,,,,,,,,,,,,,,,,,,,,,,,,003,002,2021_Dec_01_1423,psychophysicsHKA,2021.2.3,59.92085654390152,
7,nogo,silent.wav,1,4,12,6,,,,,,,,,45.34491151990369,45.344983299961314,45.344983299961314,45.344983299961314,None,45.344983299961314,46.84497099998407,,,,,,,,,,,,,,,,,,,,,,,,003,002,2021_Dec_01_1423,psychophysicsHKA,2021.2.3,59.92085654390152,
4,go,piano_min50db.wav,1,5,13,3,,,,,,,,,47.361432819860056,49.36148959980346,47.363532999996096,47.363532999996096,None,47.363532999996096,48.87808749987744,,,,,,,,,,,,,,,,,,,,,,,,003,002,2021_Dec_01_1423,psychophysicsHKA,2021.2.3,59.92085654390152,
6,nogo,silent.wav,1,6,14,5,,,,,,,,,49.39484441978857,None,49.3919669999741,49.3919669999741,None,49.3919669999741,50.89470850001089,,,,,,,,,,,,,,,,,,,,,,,,003,002,2021_Dec_01_1423,psychophysicsHKA,2021.2.3,59.92085654390152,
8,nogo,silent.wav,1,7,15,7,,,,,,,,,51.41138951992616,51.41020239982754,51.41020239982754,51.41020239982754,None,51.41020239982754,52.91160699981265,,,,,,,,,,,,,,,,,,,,,,,,003,002,2021_Dec_01_1423,psychophysicsHKA,2021.2.3,59.92085654390152,
,,,,,,,,,,,,,,,,,,,,,,,53.414066300028935,None,space,5.725959399947897,53.414066300028935,None,,,,,,,,,,,,,,,,,003,002,2021_Dec_01_1423,psychophysicsHKA,2021.2.3,59.92085654390152,
2,go,piano_min30db.wav,,,,,0,0,0,1,,,,,,,,,,,,,,,,,,,59.19477362988982,None,59.19222989981063,None,space,0.7638516000006348,59.19222989981063,None,60.00746059999801,None,2.0,1.186231799889356,60.00746059999801,None,,,003,002,2021_Dec_01_1423,psychophysicsHKA,2021.2.3,59.92085654390152,
1,go,piano_min20db.wav,,,,,0,1,1,0,,,,,,,,,,,,,,,,,,,61.19773510994855,None,61.20431189984083,None,space,0.7036168999038637,61.20431189984083,None,61.95687679992989,None,4.0,0.948674299987033,61.95687679992989,None,,,003,002,2021_Dec_01_1423,psychophysicsHKA,2021.2.3,59.92085654390152,
6,nogo,silent.wav,,,,,0,2,2,5,,,,,,,,,,,,,,,,,,,62.913495310000144,None,62.91887639998458,None,None,,62.91887639998458,64.42822410003282,64.94154239981435,None,0.0,1.577698800014332,64.94154239981435,None,,,003,002,2021_Dec_01_1423,psychophysicsHKA,2021.2.3,59.92085654390152,
3,go,piano_min40db.wav,,,,,0,3,3,2,,,,,,,,,,,,,,,,,,,66.5300956099527,None,66.53597430000082,None,space,0.8439730999525636,66.53597430000082,None,67.43003899999894,None,1.0,0.6341753001324832,67.43003899999894,None,,,003,002,2021_Dec_01_1423,psychophysicsHKA,2021.2.3,59.92085654390152,
5,nogo,silent.wav,,,,,0,4,4,4,,,,,,,,,,,,,,,,,,,68.0632089098217,None,68.06868979986757,None,None,,68.06868979986757,69.57824359997176,70.10111699998379,None,-0.0,0.7369349000509828,70.10111699998379,None,,,003,002,2021_Dec_01_1423,psychophysicsHKA,2021.2.3,59.92085654390152,
8,nogo,silent.wav,,,,,0,5,5,7,,,,,,,,,,,,,,,,,,,70.8462074099807,None,70.85278639988974,None,None,,70.85278639988974,72.36169279995374,72.88004389987327,None,-0.0,1.3224424000363797,72.88004389987327,None,,,003,002,2021_Dec_01_1423,psychophysicsHKA,2021.2.3,59.92085654390152,
7,nogo,silent.wav,,,,,0,6,6,6,,,,,,,,,,,,,,,,,,,74.21284991002176,None,74.2183522998821,None,None,,74.2183522998821,75.72802849998698,76.24386909999885,None,0.0,0.5249723000451922,76.24386909999885,None,,,003,002,2021_Dec_01_1423,psychophysicsHKA,2021.2.3,59.92085654390152,
4,go,piano_min50db.wav,,,,,0,7,7,3,,,,,,,,,,,,,,,,,,,76.78001680981833,None,76.78560730000027,None,None,,76.78560730000027,78.29500229982659,78.81268049986102,None,0.0,0.5427077000495046,78.81268049986102,None,,,003,002,2021_Dec_01_1423,psychophysicsHKA,2021.2.3,59.92085654390152,
3,go,piano_min40db.wav,,,,,1,0,8,2,,,,,,,,,,,,,,,,,,,79.36406430986244,None,79.36942509980872,None,space,1.0024759999942034,79.36942509980872,None,80.41392729990184,None,1.0,0.5213762000203133,80.41392729990184,None,,,003,002,2021_Dec_01_1423,psychophysicsHKA,2021.2.3,59.92085654390152,
5,nogo,silent.wav,,,,,1,1,9,4,,,,,,,,,,,,,,,,,,,80.94616480998229,None,80.95277269999497,None,None,,80.95277269999497,82.46164179989137,82.97729079984128,None,0.0,0.6109881999436766,82.97729079984128,None,,,003,002,2021_Dec_01_1423,psychophysicsHKA,2021.2.3,59.92085654390152,
8,nogo,silent.wav,,,,,1,2,10,7,,,,,,,,,,,,,,,,,,,83.59697441000026,None,83.60353999980725,None,None,,83.60353999980725,85.11165390000679,85.62795250001363,None,0.0,0.8432899999897927,85.62795250001363,None,,,003,002,2021_Dec_01_1423,psychophysicsHKA,2021.2.3,59.92085654390152,
6,nogo,silent.wav,,,,,1,3,11,5,,,,,,,,,,,,,,,,,,,86.48072560981382,None,86.48689489997923,None,None,,86.48689489997923,87.99522179993801,88.5171356999781,None,0.0,0.8730174999218434,88.5171356999781,None,,,003,002,2021_Dec_01_1423,psychophysicsHKA,2021.2.3,59.92085654390152,
7,nogo,silent.wav,,,,,1,4,12,6,,,,,,,,,,,,,,,,,,,89.39676810998935,None,89.40237469994463,None,None,,89.40237469994463,90.91158339986578,91.42902869987302,None,0.0,0.5423381000291556,91.42902869987302,None,,,003,002,2021_Dec_01_1423,psychophysicsHKA,2021.2.3,59.92085654390152,
2,go,piano_min30db.wav,,,,,1,5,13,1,,,,,,,,,,,,,,,,,,,91.9799891099101,None,91.98593709990382,None,space,0.8659744001924992,91.98593709990382,None,92.89934220002033,None,2.0,0.6214763999450952,92.89934220002033,None,,,003,002,2021_Dec_01_1423,psychophysicsHKA,2021.2.3,59.92085654390152,
1,go,piano_min20db.wav,,,,,1,6,14,0,,,,,,,,,,,,,,,,,,,93.53130240982864,None,93.53699009981938,None,space,0.8671619999222457,93.53699009981938,None,94.45261429995298,None,4.0,0.7883326997980475,94.45261429995298,None,,,003,002,2021_Dec_01_1423,psychophysicsHKA,2021.2.3,59.92085654390152,
4,go,piano_min50db.wav,,,,,1,7,15,3,,,,,,,,,,,,,,,,,,,95.24718100985046,None,95.25375349982642,None,space,1.038497000001371,95.25375349982642,None,96.32783309998922,None,1.0,0.7265148998703808,96.32783309998922,None,,,003,002,2021_Dec_01_1423,psychophysicsHKA,2021.2.3,59.92085654390152,
1,go,piano_min20db.wav,,,,,2,0,16,0,,,,,,,,,,,,,,,,,,,97.0633145099273,None,97.06881470000371,None,space,1.0796030000783503,97.06881470000371,None,98.19763670000248,None,4.0,1.1548083999659866,98.19763670000248,None,,,003,002,2021_Dec_01_1423,psychophysicsHKA,2021.2.3,59.92085654390152,
8,nogo,silent.wav,,,,,2,1,17,7,,,,,,,,,,,,,,,,,,,99.36392100981902,None,99.36888979980722,None,None,,99.36888979980722,100.87823689985089,101.39272749982774,None,0.0,0.5772630998399109,101.39272749982774,None,,,003,002,2021_Dec_01_1423,psychophysicsHKA,2021.2.3,59.92085654390152,
4,go,piano_min50db.wav,,,,,2,2,18,3,,,,,,,,,,,,,,,,,,,101.97987650998402,None,101.9857751999516,None,None,,101.9857751999516,103.49506459990516,104.0122511999216,None,0.0,0.49535400001332164,104.0122511999216,None,,,003,002,2021_Dec_01_1423,psychophysicsHKA,2021.2.3,59.92085654390152,
2,go,piano_min30db.wav,,,,,2,3,19,1,,,,,,,,,,,,,,,,,,,104.51313990994822,None,104.51836579991505,None,space,0.8776351001579314,104.51836579991505,None,105.43417489994317,None,2.0,0.7857115999795496,105.43417489994317,None,,,003,002,2021_Dec_01_1423,psychophysicsHKA,2021.2.3,59.92085654390152,
6,nogo,silent.wav,,,,,2,4,20,5,,,,,,,,,,,,,,,,,,,106.23008600983303,None,106.23607689980417,None,None,,106.23607689980417,107.74513049982488,108.26963380002417,None,-0.0,0.5706621001008898,108.26963380002417,None,,,003,002,2021_Dec_01_1423,psychophysicsHKA,2021.2.3,59.92085654390152,
5,nogo,silent.wav,,,,,2,5,21,4,,,,,,,,,,,,,,,,,,,108.84636330988724,None,108.85215880000032,None,None,,108.85215880000032,110.36162219988182,110.87966399989091,None,-0.0,0.63999899988994,110.87966399989091,None,,,003,002,2021_Dec_01_1423,psychophysicsHKA,2021.2.3,59.92085654390152,
7,nogo,silent.wav,,,,,2,6,22,6,,,,,,,,,,,,,,,,,,,111.5300630099373,None,111.53609079984017,None,None,,111.53609079984017,113.04513489990495,113.56514399987645,None,-0.0,0.7554663000628352,113.56514399987645,None,,,003,002,2021_Dec_01_1423,psychophysicsHKA,2021.2.3,59.92085654390152,
3,go,piano_min40db.wav,,,,,2,7,23,2,,,,,,,,,,,,,,,,,,,114.33001960988622,None,114.33617009990849,None,space,0.932394600007683,114.33617009990849,None,115.31960509996861,None,1.0,0.6356983000878245,115.31960509996861,None,,,003,002,2021_Dec_01_1423,psychophysicsHKA,2021.2.3,59.92085654390152,
4,go,piano_min50db.wav,,,,,3,0,24,3,,,,,,,,,,,,,,,,,,,115.9631900099339,None,115.9684945999179,None,space,1.0434443999547511,115.9684945999179,None,117.05031690001488,None,1.0,0.5883412000257522,117.05031690001488,None,,,003,002,2021_Dec_01_1423,psychophysicsHKA,2021.2.3,59.92085654390152,
8,nogo,silent.wav,,,,,3,1,25,7,,,,,,,,,,,,,,,,,,,117.64662350981962,None,117.6535745000001,None,None,,117.6535745000001,119.16134290001355,119.68407199997455,None,0.0,0.4707390000112355,119.68407199997455,None,,,003,002,2021_Dec_01_1423,psychophysicsHKA,2021.2.3,59.92085654390152,
2,go,piano_min30db.wav,,,,,3,2,26,1,,,,,,,,,,,,,,,,,,,120.16340940992814,None,120.1702546000015,None,space,1.06607579998672,120.1702546000015,None,121.28446559980512,None,2.0,0.7200426999479532,121.28446559980512,None,,,003,002,2021_Dec_01_1423,psychophysicsHKA,2021.2.3,59.92085654390152,
1,go,piano_min20db.wav,,,,,3,3,27,0,,,,,,,,,,,,,,,,,,,122.0129806100158,None,122.01848510000855,None,space,1.0737375000026077,122.01848510000855,None,123.13535299990326,None,4.0,0.618797899922356,123.13535299990326,None,,,003,002,2021_Dec_01_1423,psychophysicsHKA,2021.2.3,59.92085654390152,
6,nogo,silent.wav,,,,,3,4,28,5,,,,,,,,,,,,,,,,,,,123.76325310987886,None,123.76877560000867,None,None,,123.76877560000867,125.2782238998916,125.80105539993383,None,-0.0,1.0873265999834985,125.80105539993383,None,,,003,002,2021_Dec_01_1423,psychophysicsHKA,2021.2.3,59.92085654390152,
3,go,piano_min40db.wav,,,,,3,5,29,2,,,,,,,,,,,,,,,,,,,126.89719550998416,None,126.90324270003475,None,space,0.8770072001498193,126.90324270003475,None,127.83600039989688,None,1.0,0.6344981000293046,127.83600039989688,None,,,003,002,2021_Dec_01_1423,psychophysicsHKA,2021.2.3,59.92085654390152,
5,nogo,silent.wav,,,,,3,6,30,4,,,,,,,,,,,,,,,,,,,128.47977940982673,None,128.48593989992514,None,None,,128.48593989992514,129.99530389998108,130.52051269984804,None,0.0,0.9401632999069989,130.52051269984804,None,,,003,002,2021_Dec_01_1423,psychophysicsHKA,2021.2.3,59.92085654390152,
7,nogo,silent.wav,,,,,3,7,31,6,,,,,,,,,,,,,,,,,,,131.46569790982176,None,131.47061569988728,None,None,,131.47061569988728,132.97819980001077,133.50217449991032,None,0.0,1.0411829000804573,133.50217449991032,None,,,003,002,2021_Dec_01_1423,psychophysicsHKA,2021.2.3,59.92085654390152,
6,nogo,silent.wav,,,,,4,0,32,5,,,,,,,,,,,,,,,,,,,134.54650420986582,None,134.55346659990028,None,None,,134.55346659990028,136.06160110002384,136.5802974998951,None,0.0,0.5282124001532793,136.5802974998951,None,,,003,002,2021_Dec_01_1423,psychophysicsHKA,2021.2.3,59.92085654390152,
7,nogo,silent.wav,,,,,4,1,33,6,,,,,,,,,,,,,,,,,,,137.1155384100275,None,137.12101259990595,None,None,,137.12101259990595,138.62836780003272,139.14940080000088,None,0.0,0.48854469996877015,139.14940080000088,None,,,003,002,2021_Dec_01_1423,psychophysicsHKA,2021.2.3,59.92085654390152,
3,go,piano_min40db.wav,,,,,4,2,34,2,,,,,,,,,,,,,,,,,,,139.6467421100242,None,139.6536079000216,None,space,1.0064773000776768,139.6536079000216,None,140.69730190001428,None,1.0,0.5053826998919249,140.69730190001428,None,,,003,002,2021_Dec_01_1423,psychophysicsHKA,2021.2.3,59.92085654390152,
1,go,piano_min20db.wav,,,,,4,3,35,0,,,,,,,,,,,,,,,,,,,141.21312800992746,None,141.2196627999656,None,space,0.8805923999752849,141.2196627999656,None,142.15209309989586,None,4.0,0.7528677999507636,142.15209309989586,None,,,003,002,2021_Dec_01_1423,psychophysicsHKA,2021.2.3,59.92085654390152,
5,nogo,silent.wav,,,,,4,4,36,4,,,,,,,,,,,,,,,,,,,142.91471830999944,None,142.92010979983024,None,None,,142.92010979983024,144.42850479995832,144.95100019988604,None,-0.0,0.48603560007177293,144.95100019988604,None,,,003,002,2021_Dec_01_1423,psychophysicsHKA,2021.2.3,59.92085654390152,
8,nogo,silent.wav,,,,,4,5,37,7,,,,,,,,,,,,,,,,,,,145.44658131001052,None,145.4534765998833,None,None,,145.4534765998833,146.96153269987553,147.48079019994475,None,0.0,0.5404921001754701,147.48079019994475,None,,,003,002,2021_Dec_01_1423,psychophysicsHKA,2021.2.3,59.92085654390152,
4,go,piano_min50db.wav,,,,,4,6,38,3,,,,,,,,,,,,,,,,,,,148.02989070990589,None,148.03551579988562,None,space,0.9766524999868125,148.03551579988562,None,149.05136629985645,None,1.0,0.5537616000510752,149.05136629985645,None,,,003,002,2021_Dec_01_1423,psychophysicsHKA,2021.2.3,59.92085654390152,
2,go,piano_min30db.wav,,,,,4,7,39,1,,,,,,,,,,,,,,,,,,,149.6134334098315,None,149.61932759988122,None,space,0.944993499899283,149.61932759988122,None,150.6190670998767,None,2.0,1.1193533001933247,150.6190670998767,None,,,003,002,2021_Dec_01_1423,psychophysicsHKA,2021.2.3,59.92085654390152,
3,go,piano_min40db.wav,,,,,5,0,40,2,,,,,,,,,,,,,,,,,,,151.74698770989198,None,151.7523152998183,None,space,0.9881632998585701,151.7523152998183,None,152.78195979981683,None,2.0,0.620997600024566,152.78195979981683,None,,,003,002,2021_Dec_01_1423,psychophysicsHKA,2021.2.3,59.92085654390152,
6,nogo,silent.wav,,,,,5,1,41,5,,,,,,,,,,,,,,,,,,,153.4128944099648,155.4120777999051,153.41959439986385,None,None,,153.41959439986385,154.9283109998796,155.44860959984362,None,0.0,0.7567573001142591,155.44860959984362,None,,,003,002,2021_Dec_01_1423,psychophysicsHKA,2021.2.3,59.92085654390152,
5,nogo,silent.wav,,,,,5,2,42,4,,,,,,,,,,,,,,,,,,,156.21321860991884,None,156.219875899842,None,None,,156.219875899842,157.72812639991753,158.2451987999957,None,0.0,0.6582067001145333,158.2451987999957,None,,,003,002,2021_Dec_01_1423,psychophysicsHKA,2021.2.3,59.92085654390152,
4,go,piano_min50db.wav,,,,,5,3,43,3,,,,,,,,,,,,,,,,,,,158.92625100992154,160.92838209983893,158.93082210002467,None,None,,158.93082210002467,160.4450759999454,160.9691840999294,None,0.0,0.4066041000187397,160.9691840999294,None,,,003,002,2021_Dec_01_1423,psychophysicsHKA,2021.2.3,59.92085654390152,
2,go,piano_min30db.wav,,,,,5,4,44,1,,,,,,,,,,,,,,,,,,,161.39295940997545,None,161.3979595999699,None,space,0.8623223998583853,161.3979595999699,None,162.30208229995333,None,3.0,0.6024110000580549,162.30208229995333,None,,,003,002,2021_Dec_01_1423,psychophysicsHKA,2021.2.3,59.92085654390152,
7,nogo,silent.wav,,,,,5,5,45,6,,,,,,,,,,,,,,,,,,,162.91309740988072,None,162.91886919992976,None,None,,162.91886919992976,164.4281234999653,164.94561779987998,None,0.0,0.5419513999950141,164.94561779987998,None,,,003,002,2021_Dec_01_1423,psychophysicsHKA,2021.2.3,59.92085654390152,
1,go,piano_min20db.wav,,,,,5,6,46,0,,,,,,,,,,,,,,,,,,,165.49733240983915,None,165.50416629994288,None,space,1.0761078000068665,165.50416629994288,None,166.63882659981027,None,4.0,0.6874324998352677,166.63882659981027,None,,,003,002,2021_Dec_01_1423,psychophysicsHKA,2021.2.3,59.92085654390152,
8,nogo,silent.wav,,,,,5,7,47,7,,,,,,,,,,,,,,,,,,,167.33122340997215,None,167.3368573000189,None,None,,167.3368573000189,168.8450334998779,169.3724773998838,None,0.0,0.6890499999281019,169.3724773998838,None,,,003,002,2021_Dec_01_1423,psychophysicsHKA,2021.2.3,59.92085654390152,
8,nogo,silent.wav,,,,,6,0,48,7,,,,,,,,,,,,,,,,,,,170.06304680986796,None,170.06968600000255,None,None,,170.06968600000255,171.57821019995026,172.09856919990852,None,-0.0,0.5904234000481665,172.09856919990852,None,,,003,002,2021_Dec_01_1423,psychophysicsHKA,2021.2.3,59.92085654390152,
4,go,piano_min50db.wav,,,,,6,1,49,3,,,,,,,,,,,,,,,,,,,172.6976447099587,None,172.70420939987525,None,None,,172.70420939987525,174.2119199000299,174.7278211999219,None,0.0,0.4750344001222402,174.7278211999219,None,,,003,002,2021_Dec_01_1423,psychophysicsHKA,2021.2.3,59.92085654390152,
7,nogo,silent.wav,,,,,6,2,50,6,,,,,,,,,,,,,,,,,,,175.21271570993122,177.21187709993683,175.21860899985768,None,None,,175.21860899985768,176.72834409982897,177.24664909997955,None,-0.0,0.5573028998915106,177.24664909997955,None,,,003,002,2021_Dec_01_1423,psychophysicsHKA,2021.2.3,59.92085654390152,
2,go,piano_min30db.wav,,,,,6,3,51,1,,,,,,,,,,,,,,,,,,,177.8142431100132,None,177.81963349995203,None,space,0.9044790999032557,177.81963349995203,None,178.76648849993944,None,2.0,0.6375537000130862,178.76648849993944,None,,,003,002,2021_Dec_01_1423,psychophysicsHKA,2021.2.3,59.92085654390152,
5,nogo,silent.wav,,,,,6,4,52,4,,,,,,,,,,,,,,,,,,,179.41464810993057,None,179.42003529984504,None,None,,179.42003529984504,180.9281142000109,181.45830109994859,None,-0.0,0.5556799999903888,181.45830109994859,None,,,003,002,2021_Dec_01_1423,psychophysicsHKA,2021.2.3,59.92085654390152,
3,go,piano_min40db.wav,,,,,6,5,53,2,,,,,,,,,,,,,,,,,,,182.01343830989208,None,182.01996829989366,None,space,0.8002228001132607,182.01996829989366,None,182.86539699998684,None,1.0,0.8042959000449628,182.86539699998684,None,,,003,002,2021_Dec_01_1423,psychophysicsHKA,2021.2.3,59.92085654390152,
6,nogo,silent.wav,,,,,6,6,54,5,,,,,,,,,,,,,,,,,,,183.680205709883,None,183.6859017999377,None,None,,183.6859017999377,185.19530329992995,185.7107632998377,None,0.0,0.5746123001445085,185.7107632998377,None,,,003,002,2021_Dec_01_1423,psychophysicsHKA,2021.2.3,59.92085654390152,
1,go,piano_min20db.wav,,,,,6,7,55,0,,,,,,,,,,,,,,,,,,,186.29695361002814,None,186.30384139996022,None,space,0.8841483001597226,186.30384139996022,None,187.2344921999611,None,4.0,0.7702381999697536,187.2344921999611,None,,,003,002,2021_Dec_01_1423,psychophysicsHKA,2021.2.3,59.92085654390152,
3,go,piano_min40db.wav,,,,,7,0,56,2,,,,,,,,,,,,,,,,,,,188.013423009892,None,188.01965899998322,None,space,0.9445890998467803,188.01965899998322,None,189.01996889989823,None,1.0,0.4874704999383539,189.01996889989823,None,,,003,002,2021_Dec_01_1423,psychophysicsHKA,2021.2.3,59.92085654390152,
2,go,piano_min30db.wav,,,,,7,1,57,1,,,,,,,,,,,,,,,,,,,189.5135332097998,None,189.51986250001937,None,space,0.9164589000865817,189.51986250001937,None,190.48525399994105,None,2.0,0.5872959999833256,190.48525399994105,None,,,003,002,2021_Dec_01_1423,psychophysicsHKA,2021.2.3,59.92085654390152,
6,nogo,silent.wav,,,,,7,2,58,5,,,,,,,,,,,,,,,,,,,191.0799270098796,None,191.08650889992714,None,None,,191.08650889992714,192.59527029981837,193.11995669989847,None,0.0,0.5225517998915166,193.11995669989847,None,,,003,002,2021_Dec_01_1423,psychophysicsHKA,2021.2.3,59.92085654390152,
7,nogo,silent.wav,,,,,7,3,59,6,,,,,,,,,,,,,,,,,,,193.64696890988853,None,193.65290239988826,None,None,,193.65290239988826,195.16152810002677,195.6769475999754,None,-0.0,0.5595620998647064,195.6769475999754,None,,,003,002,2021_Dec_01_1423,psychophysicsHKA,2021.2.3,59.92085654390152,
8,nogo,silent.wav,,,,,7,4,60,7,,,,,,,,,,,,,,,,,,,196.24629960989114,None,196.2517517998349,None,None,,196.2517517998349,197.76177159999497,198.28274499997497,None,-0.0,0.6223852001130581,198.28274499997497,None,,,003,002,2021_Dec_01_1423,psychophysicsHKA,2021.2.3,59.92085654390152,
5,nogo,silent.wav,,,,,7,5,61,4,,,,,,,,,,,,,,,,,,,198.91306690999772,None,198.91864279983565,None,None,,198.91864279983565,200.42818639986217,200.94638809980825,None,-0.0,0.7894959000404924,200.94638809980825,None,,,003,002,2021_Dec_01_1423,psychophysicsHKA,2021.2.3,59.92085654390152,
1,go,piano_min20db.wav,,,,,7,6,62,0,,,,,,,,,,,,,,,,,,,201.74611611000728,None,201.75192989991046,None,space,1.0045126001350582,201.75192989991046,None,202.8061934998259,None,4.0,0.6696566001046449,202.8061934998259,None,,,003,002,2021_Dec_01_1423,psychophysicsHKA,2021.2.3,59.92085654390152,
4,go,piano_min50db.wav,,,,,7,7,63,3,,,,,,,,,,,,,,,,,,,203.48113491002005,None,203.4866964998655,None,None,,203.4866964998655,204.99522119993344,205.51258399989456,None,0.0,0.5724019000772387,205.51258399989456,None,,,003,002,2021_Dec_01_1423,psychophysicsHKA,2021.2.3,59.92085654390152,
,,,,,,,,,,,,,,,,,,,,,,,,,,,,,,,,,,,,,,,,,,,206.09565969998948,None,,,,,,,
