trial,response,stimFile,prac_trials.thisRepN,prac_trials.thisTrialN,prac_trials.thisN,prac_trials.thisIndex,trials.thisRepN,trials.thisTrialN,trials.thisN,trials.thisIndex,text.started,text.stopped,text_3.started,text_3.stopped,sound_p.started,sound_p.stopped,fixation.started,fixation.stopped,key_resp.keys,key_resp.rt,key_resp.started,key_resp.stopped,text_2.started,text_2.stopped,key_resp_3.keys,key_resp_3.rt,key_resp_3.started,key_resp_3.stopped,sound_1.started,sound_1.stopped,fix.started,fix.stopped,key_resp_2.keys,key_resp_2.rt,key_resp_2.started,key_resp_2.stopped,text_4.started,text_4.stopped,slider_2.response,slider_2.rt,slider_2.started,slider_2.stopped,text_5.started,text_5.stopped,participant,session,date,expName,psychopyVersion,frameRate,
2,go,piano_min30db.wav,0,0,0,1,,,,,58.638932399917394,None,63.62869709986262,None,65.66205110000446,None,65.67055709986016,None,space,1.3290208999533206,65.67055709986016,None,,,,,,,,,,,,,,,,,,,,,,,004,001,2021_Dec_01_1428,psychophysicsHKA,2021.2.3,60.11298842161002,
1,go,piano_min20db.wav,0,1,1,0,,,,,,,,,67.04561259998007,69.04550360003486,67.0485773999244,None,None,,67.0485773999244,68.56230350001715,,,,,,,,,,,,,,,,,,,,,,,004,001,2021_Dec_01_1428,psychophysicsHKA,2021.2.3,60.11298842161002,
3,go,piano_min40db.wav,0,2,2,2,,,,,,,,,69.07882820004596,None,69.07586169987917,69.07586169987917,None,,69.07586169987917,70.5788123998791,,,,,,,,,,,,,,,,,,,,,,,004,001,2021_Dec_01_1428,psychophysicsHKA,2021.2.3,60.11298842161002,
7,nogo,silent.wav,0,3,3,6,,,,,,,,,71.09550499990581,73.09563579992391,71.09785069990903,71.09785069990903,None,,71.09785069990903,72.61242430005223,,,,,,,,,,,,,,,,,,,,,,,004,001,2021_Dec_01_1428,psychophysicsHKA,2021.2.3,60.11298842161002,
4,go,piano_min50db.wav,0,4,4,3,,,,,,,,,73.12896039993501,None,73.1290634998586,73.1290634998586,None,,73.1290634998586,74.62861620006151,,,,,,,,,,,,,,,,,,,,,,,004,001,2021_Dec_01_1428,psychophysicsHKA,2021.2.3,60.11298842161002,
5,nogo,silent.wav,0,5,5,4,,,,,,,,,75.14547350006177,77.14579520002007,75.14785750000738,75.14785750000738,None,,75.14785750000738,76.66232659993693,,,,,,,,,,,,,,,,,,,,,,,004,001,2021_Dec_01_1428,psychophysicsHKA,2021.2.3,60.11298842161002,
8,nogo,silent.wav,0,6,6,7,,,,,,,,,77.17911980003117,None,77.17914379993454,77.17914379993454,None,,77.17914379993454,78.67882679984905,,,,,,,,,,,,,,,,,,,,,,,004,001,2021_Dec_01_1428,psychophysicsHKA,2021.2.3,60.11298842161002,
6,nogo,silent.wav,0,7,7,5,,,,,,,,,79.19554269993677,79.19327010004781,79.19327010004781,79.19327010004781,space,1.1024154000915587,79.19327010004781,None,,,,,,,,,,,,,,,,,,,,,,,004,001,2021_Dec_01_1428,psychophysicsHKA,2021.2.3,60.11298842161002,
4,go,piano_min50db.wav,1,0,8,3,,,,,,,,,80.32894439999944,None,80.3299485000316,None,None,,80.3299485000316,81.82892549992539,,,,,,,,,,,,,,,,,,,,,,,004,001,2021_Dec_01_1428,psychophysicsHKA,2021.2.3,60.11298842161002,
7,nogo,silent.wav,1,1,9,6,,,,,,,,,82.34566979999653,82.34675469994545,82.34675469994545,82.34675469994545,None,,82.34675469994545,83.86235469998792,,,,,,,,,,,,,,,,,,,,,,,004,001,2021_Dec_01_1428,psychophysicsHKA,2021.2.3,60.11298842161002,
5,nogo,silent.wav,1,2,10,4,,,,,,,,,84.3624268000014,84.36244959989563,84.36244959989563,84.36244959989563,None,,84.36244959989563,85.86229870002717,,,,,,,,,,,,,,,,,,,,,,,004,001,2021_Dec_01_1428,psychophysicsHKA,2021.2.3,60.11298842161002,
8,nogo,silent.wav,1,3,11,7,,,,,,,,,86.37889310000463,86.37720149988309,86.37720149988309,86.37720149988309,None,,86.37720149988309,87.8789526000619,,,,,,,,,,,,,,,,,,,,,,,004,001,2021_Dec_01_1428,psychophysicsHKA,2021.2.3,60.11298842161002,
3,go,piano_min40db.wav,1,4,12,2,,,,,,,,,88.39561709999106,88.3994291999843,88.3994291999843,88.3994291999843,space,1.1443748997990042,88.3994291999843,None,,,,,,,,,,,,,,,,,,,,,,,004,001,2021_Dec_01_1428,psychophysicsHKA,2021.2.3,60.11298842161002,
6,nogo,silent.wav,1,5,13,5,,,,,,,,,89.57878330005332,91.57884999993257,89.58021669997834,None,None,,89.58021669997834,91.09541339986026,,,,,,,,,,,,,,,,,,,,,,,004,001,2021_Dec_01_1428,psychophysicsHKA,2021.2.3,60.11298842161002,
1,go,piano_min20db.wav,1,6,14,0,,,,,,,,,91.61217459994367,None,91.60970969987102,91.60970969987102,space,0.9581279000267386,91.60970969987102,None,,,,,,,,,,,,,,,,,,,,,,,004,001,2021_Dec_01_1428,psychophysicsHKA,2021.2.3,60.11298842161002,
2,go,piano_min30db.wav,1,7,15,1,,,,,,,,,92.61229159990324,None,92.61424769996665,None,space,0.9613999999128282,92.61424769996665,None,,,,,,,,,,,,,,,,,,,,,,,004,001,2021_Dec_01_1428,psychophysicsHKA,2021.2.3,60.11298842161002,
,,,,,,,,,,,,,,,,,,,,,,,93.59942650003359,None,space,15.800082799978554,93.59942650003359,None,,,,,,,,,,,,,,,,,004,001,2021_Dec_01_1428,psychophysicsHKA,2021.2.3,60.11298842161002,
2,go,piano_min30db.wav,,,,,0,0,0,1,,,,,,,,,,,,,,,,,,,109.44537390004842,None,109.45110800000839,None,space,0.8124251000117511,109.45110800000839,None,110.30509889987297,None,2.0,5.393239400116727,110.30509889987297,None,,,004,001,2021_Dec_01_1428,psychophysicsHKA,2021.2.3,60.11298842161002,
8,nogo,silent.wav,,,,,0,1,1,7,,,,,,,,,,,,,,,,,,,115.697275899956,None,115.70423839986324,None,None,,115.70423839986324,117.21252129995264,117.72970100003295,None,0.0,2.174273299984634,117.72970100003295,None,,,004,001,2021_Dec_01_1428,psychophysicsHKA,2021.2.3,60.11298842161002,
4,go,piano_min50db.wav,,,,,0,2,2,3,,,,,,,,,,,,,,,,,,,119.91387889990582,None,119.92069399985485,None,None,,119.92069399985485,121.42899399995804,121.951692200033,None,-0.0,1.1221314000431448,121.951692200033,None,,,004,001,2021_Dec_01_1428,psychophysicsHKA,2021.2.3,60.11298842161002,
1,go,piano_min20db.wav,,,,,0,3,3,0,,,,,,,,,,,,,,,,,,,123.08047559987753,None,123.08735099993646,None,None,,123.08735099993646,124.59560119989328,125.11546649993397,None,4.0,1.1054376000538468,125.11546649993397,None,,,004,001,2021_Dec_01_1428,psychophysicsHKA,2021.2.3,60.11298842161002,
3,go,piano_min40db.wav,,,,,0,4,4,2,,,,,,,,,,,,,,,,,,,126.23053860003128,None,126.23687590006739,None,space,1.226768400054425,126.23687590006739,None,127.50980099989101,None,1.0,1.1816402000840753,127.50980099989101,None,,,004,001,2021_Dec_01_1428,psychophysicsHKA,2021.2.3,60.11298842161002,
6,nogo,silent.wav,,,,,0,5,5,5,,,,,,,,,,,,,,,,,,,128.69752179984934,None,128.7041078999173,None,space,1.3039381001144648,128.7041078999173,None,130.0541689998936,None,0.0,0.6326154000125825,130.0541689998936,None,,,004,001,2021_Dec_01_1428,psychophysicsHKA,2021.2.3,60.11298842161002,
5,nogo,silent.wav,,,,,0,6,6,4,,,,,,,,,,,,,,,,,,,130.69708809992298,None,130.70284909987822,None,None,,130.70284909987822,132.2123135998845,132.73512159986421,None,-0.0,0.7038466997910291,132.73512159986421,None,,,004,001,2021_Dec_01_1428,psychophysicsHKA,2021.2.3,60.11298842161002,
7,nogo,silent.wav,,,,,0,7,7,6,,,,,,,,,,,,,,,,,,,133.44697309997863,None,133.45305810007267,None,None,,133.45305810007267,134.96240819990635,135.48271259991452,None,-0.0,0.5227533001452684,135.48271259991452,None,,,004,001,2021_Dec_01_1428,psychophysicsHKA,2021.2.3,60.11298842161002,
5,nogo,silent.wav,,,,,1,0,8,4,,,,,,,,,,,,,,,,,,,136.03108789985998,None,136.02217660006136,None,None,,136.02217660006136,137.5290124998428,138.04987009987235,None,-0.0,0.6910349999088794,138.04987009987235,None,,,004,001,2021_Dec_01_1428,psychophysicsHKA,2021.2.3,60.11298842161002,
4,go,piano_min50db.wav,,,,,1,1,9,3,,,,,,,,,,,,,,,,,,,138.7471752000507,None,138.75440329988487,None,None,,138.75440329988487,140.26228239992633,140.7841745999176,None,0.0,2.6551765999756753,140.7841745999176,None,,,004,001,2021_Dec_01_1428,psychophysicsHKA,2021.2.3,60.11298842161002,
3,go,piano_min40db.wav,,,,,1,2,10,2,,,,,,,,,,,,,,,,,,,143.44724160004407,None,143.4528017998673,None,space,1.466812500031665,143.4528017998673,None,144.9721413999796,None,1.0,0.9161340000573546,144.9721413999796,None,,,004,001,2021_Dec_01_1428,psychophysicsHKA,2021.2.3,60.11298842161002,
7,nogo,silent.wav,,,,,1,3,11,6,,,,,,,,,,,,,,,,,,,145.8975733000785,None,145.9034215998836,None,None,,145.9034215998836,147.41253530001268,147.92798549984582,None,-0.0,0.9916892999317497,147.92798549984582,None,,,004,001,2021_Dec_01_1428,psychophysicsHKA,2021.2.3,60.11298842161002,
8,nogo,silent.wav,,,,,1,4,12,7,,,,,,,,,,,,,,,,,,,148.93096699998713,None,148.93654779996723,None,None,,148.93654779996723,150.4456086999271,150.96649220003746,None,-0.0,1.6240411999169737,150.96649220003746,None,,,004,001,2021_Dec_01_1428,psychophysicsHKA,2021.2.3,60.11298842161002,
1,go,piano_min20db.wav,,,,,1,5,13,0,,,,,,,,,,,,,,,,,,,152.59755829991772,None,152.60347880003974,None,None,,152.60347880003974,154.11254030000418,154.61894949991256,None,3.0,1.1679040999151766,154.61894949991256,None,,,004,001,2021_Dec_01_1428,psychophysicsHKA,2021.2.3,60.11298842161002,
2,go,piano_min30db.wav,,,,,1,6,14,1,,,,,,,,,,,,,,,,,,,155.79678179989568,None,155.80375829990953,None,None,,155.80375829990953,157.3124873000197,157.83936730003916,None,2.0,0.635784300044179,157.83936730003916,None,,,004,001,2021_Dec_01_1428,psychophysicsHKA,2021.2.3,60.11298842161002,
6,nogo,silent.wav,,,,,1,7,15,5,,,,,,,,,,,,,,,,,,,158.4808607000392,None,158.48726590001024,None,None,,158.48726590001024,159.99560429994017,160.5153665000107,None,0.0,0.7718043001368642,160.5153665000107,None,,,004,001,2021_Dec_01_1428,psychophysicsHKA,2021.2.3,60.11298842161002,
6,nogo,silent.wav,,,,,2,0,16,5,,,,,,,,,,,,,,,,,,,161.29715849985368,None,161.30355159984902,None,None,,161.30355159984902,162.81232160003856,163.33219980006106,None,0.0,1.8744118998292834,163.33219980006106,None,,,004,001,2021_Dec_01_1428,psychophysicsHKA,2021.2.3,60.11298842161002,
3,go,piano_min40db.wav,,,,,2,1,17,2,,,,,,,,,,,,,,,,,,,165.21457079998217,None,165.21998699987307,None,None,,165.21998699987307,166.7292549998965,167.25504900002852,None,1.0,0.7025737001094967,167.25504900002852,None,,,004,001,2021_Dec_01_1428,psychophysicsHKA,2021.2.3,60.11298842161002,
5,nogo,silent.wav,,,,,2,2,18,4,,,,,,,,,,,,,,,,,,,167.96375889996997,None,167.97037329990417,None,None,,167.97037329990417,169.47899620002136,170.0073776000645,None,-0.0,1.0195832999888808,170.0073776000645,None,,,004,001,2021_Dec_01_1428,psychophysicsHKA,2021.2.3,60.11298842161002,
2,go,piano_min30db.wav,,,,,2,3,19,1,,,,,,,,,,,,,,,,,,,171.0317812998779,None,171.03769419994205,None,None,,171.03769419994205,172.54560179985128,173.06762859993614,None,1.0,1.4724520000163466,173.06762859993614,None,,,004,001,2021_Dec_01_1428,psychophysicsHKA,2021.2.3,60.11298842161002,
1,go,piano_min20db.wav,,,,,2,4,20,0,,,,,,,,,,,,,,,,,,,174.54770750007592,None,174.5534433000721,None,space,1.4384268000721931,174.5534433000721,None,176.04080049996264,None,2.0,1.0343229998834431,176.04080049996264,None,,,004,001,2021_Dec_01_1428,psychophysicsHKA,2021.2.3,60.11298842161002,
4,go,piano_min50db.wav,,,,,2,5,21,3,,,,,,,,,,,,,,,,,,,177.08065669997595,None,177.08658019988798,None,None,,177.08658019988798,178.5957875000313,179.1130240999628,None,0.0,0.9067840001080185,179.1130240999628,None,,,004,001,2021_Dec_01_1428,psychophysicsHKA,2021.2.3,60.11298842161002,
8,nogo,silent.wav,,,,,2,6,22,7,,,,,,,,,,,,,,,,,,,180.03071940005756,None,180.03740000003017,None,None,,180.03740000003017,181.54555949987844,182.06437380006537,None,-0.0,0.9604398000519723,182.06437380006537,None,,,004,001,2021_Dec_01_1428,psychophysicsHKA,2021.2.3,60.11298842161002,
7,nogo,silent.wav,,,,,2,7,23,6,,,,,,,,,,,,,,,,,,,183.03223809986375,None,183.03836270002648,None,None,,183.03836270002648,184.54565840004943,185.06601640000008,None,0.0,0.8895071998704225,185.06601640000008,None,,,004,001,2021_Dec_01_1428,psychophysicsHKA,2021.2.3,60.11298842161002,
4,go,piano_min50db.wav,,,,,3,0,24,3,,,,,,,,,,,,,,,,,,,185.9637973999139,None,185.97054439992644,None,None,,185.97054439992644,187.47905309987254,188.006314399885,None,1.0,1.2365776998922229,188.006314399885,None,,,004,001,2021_Dec_01_1428,psychophysicsHKA,2021.2.3,60.11298842161002,
1,go,piano_min20db.wav,,,,,3,1,25,0,,,,,,,,,,,,,,,,,,,189.24764650003053,None,189.25348820001818,None,space,1.2500472001265734,189.25348820001818,None,190.55667469999753,None,2.0,0.8689890999812633,190.55667469999753,None,,,004,001,2021_Dec_01_1428,psychophysicsHKA,2021.2.3,60.11298842161002,
7,nogo,silent.wav,,,,,3,2,26,6,,,,,,,,,,,,,,,,,,,191.43084589987993,None,191.43800879991613,None,None,,191.43800879991613,192.94563569989987,193.47210010001436,None,-0.0,0.9394788998179138,193.47210010001436,None,,,004,001,2021_Dec_01_1428,psychophysicsHKA,2021.2.3,60.11298842161002,
8,nogo,silent.wav,,,,,3,3,27,7,,,,,,,,,,,,,,,,,,,194.41468730000778,None,194.42024699994363,None,None,,194.42024699994363,195.92905450006947,196.4511297000572,None,0.0,0.9379749000072479,196.4511297000572,None,,,004,001,2021_Dec_01_1428,psychophysicsHKA,2021.2.3,60.11298842161002,
6,nogo,silent.wav,,,,,3,4,28,5,,,,,,,,,,,,,,,,,,,197.39774080007336,None,197.40355519996956,None,None,,197.40355519996956,198.91255109990016,199.42588529991917,None,0.0,0.6613062000833452,199.42588529991917,None,,,004,001,2021_Dec_01_1428,psychophysicsHKA,2021.2.3,60.11298842161002,
5,nogo,silent.wav,,,,,3,5,29,4,,,,,,,,,,,,,,,,,,,200.09799709999933,None,200.1046614998486,None,None,,200.1046614998486,201.61231169989333,202.12796459998935,None,0.0,1.4392425999976695,202.12796459998935,None,,,004,001,2021_Dec_01_1428,psychophysicsHKA,2021.2.3,60.11298842161002,
3,go,piano_min40db.wav,,,,,3,6,30,2,,,,,,,,,,,,,,,,,,,203.5794663998764,None,203.58491380000487,None,space,1.0946227998938411,203.58491380000487,None,204.72752820001915,None,1.0,0.7491864999756217,204.72752820001915,None,,,004,001,2021_Dec_01_1428,psychophysicsHKA,2021.2.3,60.11298842161002,
2,go,piano_min30db.wav,,,,,3,7,31,1,,,,,,,,,,,,,,,,,,,205.48174430001527,None,205.48781750001945,None,space,1.0638447999954224,205.48781750001945,None,206.60297659994103,None,2.0,0.6525662001222372,206.60297659994103,None,,,004,001,2021_Dec_01_1428,psychophysicsHKA,2021.2.3,60.11298842161002,
7,nogo,silent.wav,,,,,4,0,32,6,,,,,,,,,,,,,,,,,,,207.26443010000511,None,207.27114399988204,None,None,,207.27114399988204,208.77892809989862,209.3013402998913,None,-0.0,0.8206342000048608,209.3013402998913,None,,,004,001,2021_Dec_01_1428,psychophysicsHKA,2021.2.3,60.11298842161002,
3,go,piano_min40db.wav,,,,,4,1,33,2,,,,,,,,,,,,,,,,,,,210.13048909991048,None,210.1367462000344,None,space,1.038741199998185,210.1367462000344,None,211.23178579984233,None,1.0,0.7011406000237912,211.23178579984233,None,,,004,001,2021_Dec_01_1428,psychophysicsHKA,2021.2.3,60.11298842161002,
5,nogo,silent.wav,,,,,4,2,34,4,,,,,,,,,,,,,,,,,,,211.9307848998811,None,211.9372810998466,None,None,,211.9372810998466,213.4457157999277,213.96865869988687,None,0.0,0.5067485000472516,213.96865869988687,None,,,004,001,2021_Dec_01_1428,psychophysicsHKA,2021.2.3,60.11298842161002,
8,nogo,silent.wav,,,,,4,3,35,7,,,,,,,,,,,,,,,,,,,214.48061059988103,None,214.48742690007202,None,None,,214.48742690007202,215.99567359988578,216.51380189997144,None,0.0,0.6251991998869926,216.51380189997144,None,,,004,001,2021_Dec_01_1428,psychophysicsHKA,2021.2.3,60.11298842161002,
4,go,piano_min50db.wav,,,,,4,4,36,3,,,,,,,,,,,,,,,,,,,217.14847819986753,None,217.15423620003276,None,space,1.1896397001110017,217.15423620003276,None,218.3906417998951,None,1.0,0.5359441000036895,218.3906417998951,None,,,004,001,2021_Dec_01_1428,psychophysicsHKA,2021.2.3,60.11298842161002,
6,nogo,silent.wav,,,,,4,5,37,5,,,,,,,,,,,,,,,,,,,218.93087619999423,None,218.93737489986233,None,None,,218.93737489986233,220.4455965999514,220.96901759994216,None,-0.0,0.9726241000462323,220.96901759994216,None,,,004,001,2021_Dec_01_1428,psychophysicsHKA,2021.2.3,60.11298842161002,
1,go,piano_min20db.wav,,,,,4,6,38,0,,,,,,,,,,,,,,,,,,,221.94769869991578,None,221.95403010002337,None,space,1.3495549999643117,221.95403010002337,None,223.35141430003569,None,4.0,1.453389999922365,223.35141430003569,None,,,004,001,2021_Dec_01_1428,psychophysicsHKA,2021.2.3,60.11298842161002,
2,go,piano_min30db.wav,,,,,4,7,39,1,,,,,,,,,,,,,,,,,,,224.81491650003008,None,224.82030280004255,None,space,1.2033647999633104,224.82030280004255,None,226.07797280000523,None,3.0,0.7663086999673396,226.07797280000523,None,,,004,001,2021_Dec_01_1428,psychophysicsHKA,2021.2.3,60.11298842161002,
7,nogo,silent.wav,,,,,5,0,40,6,,,,,,,,,,,,,,,,,,,226.8477078998927,None,226.85309039987624,None,None,,226.85309039987624,228.36250619986095,228.8795361998491,None,-0.0,0.7912439000792801,228.8795361998491,None,,,004,001,2021_Dec_01_1428,psychophysicsHKA,2021.2.3,60.11298842161002,
8,nogo,silent.wav,,,,,5,1,41,7,,,,,,,,,,,,,,,,,,,229.68111519995145,None,229.68688489985652,None,None,,229.68688489985652,231.19572349986993,231.7142524998635,None,-0.0,1.3080621999688447,231.7142524998635,None,,,004,001,2021_Dec_01_1428,psychophysicsHKA,2021.2.3,60.11298842161002,
5,nogo,silent.wav,,,,,5,2,42,4,,,,,,,,,,,,,,,,,,,233.0310947000049,None,233.03603089996614,None,None,,233.03603089996614,234.54547620005906,235.0667774998583,None,-0.0,0.4560771998949349,235.0667774998583,None,,,004,001,2021_Dec_01_1428,psychophysicsHKA,2021.2.3,60.11298842161002,
3,go,piano_min40db.wav,,,,,5,3,43,2,,,,,,,,,,,,,,,,,,,235.53047060002572,None,235.53736189985648,None,space,1.398259799927473,235.53736189985648,None,236.98825239995494,None,1.0,1.049083299934864,236.98825239995494,None,,,004,001,2021_Dec_01_1428,psychophysicsHKA,2021.2.3,60.11298842161002,
4,go,piano_min50db.wav,,,,,5,4,44,3,,,,,,,,,,,,,,,,,,,238.04707949995063,None,238.0538329000119,None,space,1.361914400011301,238.0538329000119,None,239.46863229991868,None,1.0,0.6017746001016349,239.46863229991868,None,,,004,001,2021_Dec_01_1428,psychophysicsHKA,2021.2.3,60.11298842161002,
2,go,piano_min30db.wav,,,,,5,5,45,1,,,,,,,,,,,,,,,,,,,240.08100699996575,None,240.0878218000289,None,space,1.440039999783039,240.0878218000289,None,241.57405559998006,None,2.0,0.6185201001353562,241.57405559998006,None,,,004,001,2021_Dec_01_1428,psychophysicsHKA,2021.2.3,60.11298842161002,
1,go,piano_min20db.wav,,,,,5,6,46,0,,,,,,,,,,,,,,,,,,,242.1975573998876,None,242.20302809984423,None,space,1.2126614998560399,242.20302809984423,None,243.47738069994375,None,3.0,0.6453842001501471,243.47738069994375,None,,,004,001,2021_Dec_01_1428,psychophysicsHKA,2021.2.3,60.11298842161002,
6,nogo,silent.wav,,,,,5,7,47,5,,,,,,,,,,,,,,,,,,,244.12931270003318,246.12914599990472,244.13511629984714,None,None,,244.13511629984714,245.64564979984425,246.16291849990375,None,-0.0,0.6256099999882281,246.16291849990375,None,,,004,001,2021_Dec_01_1428,psychophysicsHKA,2021.2.3,60.11298842161002,
2,go,piano_min30db.wav,,,,,6,0,48,1,,,,,,,,,,,,,,,,,,,246.79877030001953,None,246.80429390002973,None,space,1.139498199801892,246.80429390002973,None,247.9884087999817,None,2.0,0.8350599999539554,247.9884087999817,None,,,004,001,2021_Dec_01_1428,psychophysicsHKA,2021.2.3,60.11298842161002,
5,nogo,silent.wav,,,,,6,1,49,4,,,,,,,,,,,,,,,,,,,248.83044899990782,None,248.83732849988155,None,None,,248.83732849988155,250.34566790005192,250.86786370002665,None,0.0,1.0133698999416083,250.86786370002665,None,,,004,001,2021_Dec_01_1428,psychophysicsHKA,2021.2.3,60.11298842161002,
4,go,piano_min50db.wav,,,,,6,2,50,3,,,,,,,,,,,,,,,,,,,251.886502599949,None,251.89269679994322,None,space,1.3150039999745786,251.89269679994322,None,253.26090079988353,None,1.0,0.5987378000281751,253.26090079988353,None,,,004,001,2021_Dec_01_1428,psychophysicsHKA,2021.2.3,60.11298842161002,
7,nogo,silent.wav,,,,,6,3,51,6,,,,,,,,,,,,,,,,,,,253.8638950999826,None,253.8704762000125,None,None,,253.8704762000125,255.37910040002316,255.89762980001979,None,-0.0,0.7403929999563843,255.89762980001979,None,,,004,001,2021_Dec_01_1428,psychophysicsHKA,2021.2.3,60.11298842161002,
3,go,piano_min40db.wav,,,,,6,4,52,2,,,,,,,,,,,,,,,,,,,256.64740889999086,None,256.65311329998076,None,space,1.1146980000194162,256.65311329998076,None,257.8183649999555,None,1.0,0.5028460999019444,257.8183649999555,None,,,004,001,2021_Dec_01_1428,psychophysicsHKA,2021.2.3,60.11298842161002,
1,go,piano_min20db.wav,,,,,6,5,53,0,,,,,,,,,,,,,,,,,,,258.33047020006927,None,258.3371557998471,None,space,1.0944866000209004,258.3371557998471,None,259.4835971998982,None,4.0,1.0533885001204908,259.4835971998982,None,,,004,001,2021_Dec_01_1428,psychophysicsHKA,2021.2.3,60.11298842161002,
8,nogo,silent.wav,,,,,6,6,54,7,,,,,,,,,,,,,,,,,,,260.54774049986156,None,260.5534568000585,None,None,,260.5534568000585,262.06269749999046,262.5889228999149,None,0.0,0.6725182000081986,262.5889228999149,None,,,004,001,2021_Dec_01_1428,psychophysicsHKA,2021.2.3,60.11298842161002,
6,nogo,silent.wav,,,,,6,7,55,5,,,,,,,,,,,,,,,,,,,263.264371999912,None,263.2709961999208,None,None,,263.2709961999208,264.779113400029,265.30928949988447,None,-0.0,0.8529835999943316,265.30928949988447,None,,,004,001,2021_Dec_01_1428,psychophysicsHKA,2021.2.3,60.11298842161002,
6,nogo,silent.wav,,,,,7,0,56,5,,,,,,,,,,,,,,,,,,,266.1637741999235,None,266.1703896999825,None,None,,266.1703896999825,267.67919759987853,268.2091097999364,None,0.0,0.804052600171417,268.2091097999364,None,,,004,001,2021_Dec_01_1428,psychophysicsHKA,2021.2.3,60.11298842161002,
2,go,piano_min30db.wav,,,,,7,1,57,1,,,,,,,,,,,,,,,,,,,269.01375710000286,None,269.020100899972,None,space,1.0515079000033438,269.020100899972,None,270.11576949991286,None,2.0,1.0379214000422508,270.11576949991286,None,,,004,001,2021_Dec_01_1428,psychophysicsHKA,2021.2.3,60.11298842161002,
8,nogo,silent.wav,,,,,7,2,58,7,,,,,,,,,,,,,,,,,,,271.1635027000681,None,271.1701704999432,None,None,,271.1701704999432,272.67905270005576,273.19882839987986,None,0.0,1.0884996999520808,273.19882839987986,None,,,004,001,2021_Dec_01_1428,psychophysicsHKA,2021.2.3,60.11298842161002,
3,go,piano_min40db.wav,,,,,7,3,59,2,,,,,,,,,,,,,,,,,,,274.3138802999631,None,274.30474089994095,None,space,0.9665483001153916,274.30474089994095,None,275.30393170006573,None,1.0,0.5858594998717308,275.30393170006573,None,,,004,001,2021_Dec_01_1428,psychophysicsHKA,2021.2.3,60.11298842161002,
7,nogo,silent.wav,,,,,7,4,60,6,,,,,,,,,,,,,,,,,,,275.9184051999357,None,275.9171269000508,None,None,,275.9171269000508,277.42921569989994,277.92884880001657,None,-0.0,0.7911320000421256,277.92884880001657,None,,,004,001,2021_Dec_01_1428,psychophysicsHKA,2021.2.3,60.11298842161002,
4,go,piano_min50db.wav,,,,,7,5,61,3,,,,,,,,,,,,,,,,,,,278.7306048000697,None,278.7375155999325,None,space,1.0303076000418514,278.7375155999325,None,279.81996049988084,None,1.0,0.6695461999624968,279.81996049988084,None,,,004,001,2021_Dec_01_1428,psychophysicsHKA,2021.2.3,60.11298842161002,
5,nogo,silent.wav,,,,,7,6,62,4,,,,,,,,,,,,,,,,,,,280.49736499986614,None,280.50287269987166,None,None,,280.50287269987166,282.0124456998892,282.5276086998638,None,-0.0,1.3765429998748004,282.5276086998638,None,,,004,001,2021_Dec_01_1428,psychophysicsHKA,2021.2.3,60.11298842161002,
1,go,piano_min20db.wav,,,,,7,7,63,0,,,,,,,,,,,,,,,,,,,283.9151187000331,None,283.92199829989113,None,space,0.9016150000970811,283.92199829989113,None,284.8738114000298,None,4.0,0.7676579998806119,284.8738114000298,None,,,004,001,2021_Dec_01_1428,psychophysicsHKA,2021.2.3,60.11298842161002,
,,,,,,,,,,,,,,,,,,,,,,,,,,,,,,,,,,,,,,,,,,,285.6476191000547,None,,,,,,,
