trial,response,stimFile,prac_trials.thisRepN,prac_trials.thisTrialN,prac_trials.thisN,prac_trials.thisIndex,trials.thisRepN,trials.thisTrialN,trials.thisN,trials.thisIndex,text.started,text.stopped,text_3.started,text_3.stopped,sound_p.started,sound_p.stopped,fixation.started,fixation.stopped,key_resp.keys,key_resp.rt,key_resp.started,key_resp.stopped,text_2.started,text_2.stopped,key_resp_3.keys,key_resp_3.rt,key_resp_3.started,key_resp_3.stopped,sound_1.started,sound_1.stopped,fix.started,fix.stopped,key_resp_2.keys,key_resp_2.started,key_resp_2.stopped,text_4.started,text_4.stopped,slider_2.response,slider_2.rt,slider_2.started,slider_2.stopped,key_resp_2.rt,text_5.started,text_5.stopped,participant,session,date,expName,psychopyVersion,frameRate,
2,go,piano_min30db.wav,0,0,0,1,,,,,18.276144200004637,None,23.268768400186673,None,25.285271960217507,None,25.304898700211197,None,space,0.9997107000090182,25.304898700211197,None,,,,,,,,,,,,,,,,,,,,,,,008,001,2021_Dec_01_1501,psychophysicsHKA,2021.2.3,60.07514200028877,
3,go,piano_min40db.wav,0,1,1,2,,,,,,,,,26.352242960035802,None,26.349407400004566,None,space,1.1072605999652296,26.349407400004566,None,,,,,,,,,,,,,,,,,,,,,,,008,001,2021_Dec_01_1501,psychophysicsHKA,2021.2.3,60.07514200028877,
1,go,piano_min20db.wav,0,2,2,0,,,,,,,,,27.502110860217364,None,27.501479800092056,None,space,0.9317773999646306,27.501479800092056,None,,,,,,,,,,,,,,,,,,,,,,,008,001,2021_Dec_01_1501,psychophysicsHKA,2021.2.3,60.07514200028877,
8,nogo,silent.wav,0,3,3,7,,,,,,,,,28.468913360172884,None,28.463432900141925,None,None,,28.463432900141925,29.968965200008824,,,,,,,,,,,,,,,,,,,,,,,008,001,2021_Dec_01_1501,psychophysicsHKA,2021.2.3,60.07514200028877,
7,nogo,silent.wav,0,4,4,6,,,,,,,,,30.485398560203613,30.477717900183052,30.477717900183052,30.477717900183052,None,,30.477717900183052,31.985293600009754,,,,,,,,,,,,,,,,,,,,,,,008,001,2021_Dec_01_1501,psychophysicsHKA,2021.2.3,60.07514200028877,
4,go,piano_min50db.wav,0,5,5,3,,,,,,,,,32.502528360020364,32.50193590018898,32.50193590018898,32.50193590018898,None,,32.50193590018898,34.00195840001106,,,,,,,,,,,,,,,,,,,,,,,008,001,2021_Dec_01_1501,psychophysicsHKA,2021.2.3,60.07514200028877,
5,nogo,silent.wav,0,6,6,4,,,,,,,,,34.518902060016984,34.514447200112045,34.514447200112045,34.514447200112045,None,,34.514447200112045,36.01861960021779,,,,,,,,,,,,,,,,,,,,,,,008,001,2021_Dec_01_1501,psychophysicsHKA,2021.2.3,60.07514200028877,
6,nogo,silent.wav,0,7,7,5,,,,,,,,,36.53536196020431,36.5277567000594,36.5277567000594,36.5277567000594,None,,36.5277567000594,38.03569790022448,,,,,,,,,,,,,,,,,,,,,,,008,001,2021_Dec_01_1501,psychophysicsHKA,2021.2.3,60.07514200028877,
5,nogo,silent.wav,1,0,8,4,,,,,,,,,38.5350173802115,40.53544990019873,38.538418900221586,38.538418900221586,None,,38.538418900221586,40.05240700021386,,,,,,,,,,,,,,,,,,,,,,,008,001,2021_Dec_01_1501,psychophysicsHKA,2021.2.3,60.07514200028877,
1,go,piano_min20db.wav,1,1,9,0,,,,,,,,,40.56879986021667,None,40.56083870003931,40.56083870003931,space,1.0399402000475675,40.56083870003931,None,,,,,,,,,,,,,,,,,,,,,,,008,001,2021_Dec_01_1501,psychophysicsHKA,2021.2.3,60.07514200028877,
6,nogo,silent.wav,1,2,10,5,,,,,,,,,41.63548936010338,None,41.62995870015584,None,None,,41.62995870015584,43.13594340020791,,,,,,,,,,,,,,,,,,,,,,,008,001,2021_Dec_01_1501,psychophysicsHKA,2021.2.3,60.07514200028877,
3,go,piano_min40db.wav,1,3,11,2,,,,,,,,,43.65223786015994,43.64821750018746,43.64821750018746,43.64821750018746,space,0.960363999940455,43.64821750018746,None,,,,,,,,,,,,,,,,,,,,,,,008,001,2021_Dec_01_1501,psychophysicsHKA,2021.2.3,60.07514200028877,
2,go,piano_min30db.wav,1,4,12,1,,,,,,,,,44.65197056010365,None,44.64762190007605,None,space,0.9210655998904258,44.64762190007605,None,,,,,,,,,,,,,,,,,,,,,,,008,001,2021_Dec_01_1501,psychophysicsHKA,2021.2.3,60.07514200028877,
8,nogo,silent.wav,1,5,13,7,,,,,,,,,45.60208976003341,None,45.59917200007476,None,None,,45.59917200007476,47.10204730019905,,,,,,,,,,,,,,,,,,,,,,,008,001,2021_Dec_01_1501,psychophysicsHKA,2021.2.3,60.07514200028877,
4,go,piano_min50db.wav,1,6,14,3,,,,,,,,,47.61915326016023,47.61626280006021,47.61626280006021,47.61626280006021,None,,47.61626280006021,49.118627100018784,,,,,,,,,,,,,,,,,,,,,,,008,001,2021_Dec_01_1501,psychophysicsHKA,2021.2.3,60.07514200028877,
7,nogo,silent.wav,1,7,15,6,,,,,,,,,49.618535780068484,51.6189880000893,49.62401000014506,49.62401000014506,None,,49.62401000014506,51.13560830010101,,,,,,,,,,,,,,,,,,,,,,,008,001,2021_Dec_01_1501,psychophysicsHKA,2021.2.3,60.07514200028877,
,,,,,,,,,,,,,,,,,,,,,,,51.63882070011459,None,space,15.897880600066856,51.63882070011459,None,,,,,,,,,,,,,,,,,008,001,2021_Dec_01_1501,psychophysicsHKA,2021.2.3,60.07514200028877,
5,nogo,silent.wav,,,,,0,0,0,4,,,,,,,,,,,,,,,,,,,67.58546904018148,None,67.5841728001833,None,None,67.5841728001833,69.08550720009953,69.60136870015413,None,0.0,2.791462100110948,69.60136870015413,None,,,,008,001,2021_Dec_01_1501,psychophysicsHKA,2021.2.3,60.07514200028877,
2,go,piano_min30db.wav,,,,,0,1,1,1,,,,,,,,,,,,,,,,,,,72.4055553601589,None,72.39751000003889,None,None,72.39751000003889,73.90207720012404,74.41965250018984,None,2.0,2.363124700030312,74.41965250018984,None,,,,008,001,2021_Dec_01_1501,psychophysicsHKA,2021.2.3,60.07514200028877,
6,nogo,silent.wav,,,,,0,2,2,5,,,,,,,,,,,,,,,,,,,76.80408876007422,None,76.79514430020936,None,None,76.79514430020936,78.30203800019808,78.8295747002121,None,0.0,2.8863657999318093,78.8295747002121,None,,,,008,001,2021_Dec_01_1501,psychophysicsHKA,2021.2.3,60.07514200028877,
1,go,piano_min20db.wav,,,,,0,3,3,0,,,,,,,,,,,,,,,,,,,81.73698316016234,None,81.72792500001378,None,None,81.72792500001378,83.2356495000422,83.75144820008427,None,3.0,0.8580890998709947,83.75144820008427,None,,,,008,001,2021_Dec_01_1501,psychophysicsHKA,2021.2.3,60.07514200028877,
4,go,piano_min50db.wav,,,,,0,4,4,3,,,,,,,,,,,,,,,,,,,84.62061908021569,None,84.62762740021572,None,None,84.62762740021572,86.13547830004245,86.65019680000842,None,1.0,0.9436040997970849,86.65019680000842,None,,,,008,001,2021_Dec_01_1501,psychophysicsHKA,2021.2.3,60.07514200028877,
8,nogo,silent.wav,,,,,0,5,5,7,,,,,,,,,,,,,,,,,,,87.60405928008258,None,87.61081110010855,None,None,87.61081110010855,89.11904140003026,89.63557120016776,None,-0.0,1.1910037000197917,89.63557120016776,None,,,,008,001,2021_Dec_01_1501,psychophysicsHKA,2021.2.3,60.07514200028877,
3,go,piano_min40db.wav,,,,,0,6,6,2,,,,,,,,,,,,,,,,,,,90.83722988022491,None,90.84262200002559,None,None,90.84262200002559,92.35232250019908,92.87528530019335,None,2.0,0.8068719999864697,92.87528530019335,None,,,,008,001,2021_Dec_01_1501,psychophysicsHKA,2021.2.3,60.07514200028877,
7,nogo,silent.wav,,,,,0,7,7,6,,,,,,,,,,,,,,,,,,,93.68714058022015,None,93.69367180019617,None,None,93.69367180019617,95.20223280019127,95.7258384001907,None,-0.0,1.1547608999535441,95.7258384001907,None,,,,008,001,2021_Dec_01_1501,psychophysicsHKA,2021.2.3,60.07514200028877,
6,nogo,silent.wav,,,,,1,0,8,5,,,,,,,,,,,,,,,,,,,96.88740758011117,None,96.89383590011857,None,None,96.89383590011857,98.40209290012717,98.91805480001494,None,-0.0,1.558221499901265,98.91805480001494,None,,,,008,001,2021_Dec_01_1501,psychophysicsHKA,2021.2.3,60.07514200028877,
3,go,piano_min40db.wav,,,,,1,1,9,2,,,,,,,,,,,,,,,,,,,100.48709108023904,None,100.49397520022467,None,None,100.49397520022467,102.00198210007511,102.51493650022894,None,1.0,0.8768541000317782,102.51493650022894,None,,,,008,001,2021_Dec_01_1501,psychophysicsHKA,2021.2.3,60.07514200028877,
2,go,piano_min30db.wav,,,,,1,2,10,1,,,,,,,,,,,,,,,,,,,103.40398298013024,None,103.41030410001986,None,None,103.41030410001986,104.9192399000749,105.43880180013366,None,2.0,0.9555186000652611,105.43880180013366,None,,,,008,001,2021_Dec_01_1501,psychophysicsHKA,2021.2.3,60.07514200028877,
7,nogo,silent.wav,,,,,1,3,11,6,,,,,,,,,,,,,,,,,,,106.40447588004172,None,106.4113043001853,None,None,106.4113043001853,107.91867760010064,108.43284500017762,None,-0.0,1.388572599971667,108.43284500017762,None,,,,008,001,2021_Dec_01_1501,psychophysicsHKA,2021.2.3,60.07514200028877,
5,nogo,silent.wav,,,,,1,4,12,4,,,,,,,,,,,,,,,,,,,109.83240088000893,111.83578460011631,109.83842730009928,None,None,109.83842730009928,111.35210960009135,111.86933120014146,None,0.0,1.3593554999679327,111.86933120014146,None,,,,008,001,2021_Dec_01_1501,psychophysicsHKA,2021.2.3,60.07514200028877,
1,go,piano_min20db.wav,,,,,1,5,13,0,,,,,,,,,,,,,,,,,,,113.23812618008814,None,113.24356830003671,None,None,113.24356830003671,114.75237950007431,115.271405500127,None,3.0,0.8102390000130981,115.271405500127,None,,,,008,001,2021_Dec_01_1501,psychophysicsHKA,2021.2.3,60.07514200028877,
8,nogo,silent.wav,,,,,1,6,14,7,,,,,,,,,,,,,,,,,,,116.08729068022221,None,116.09324529999867,None,None,116.09324529999867,117.60211920016445,118.1304995000828,None,0.0,2.219164500012994,118.1304995000828,None,,,,008,001,2021_Dec_01_1501,psychophysicsHKA,2021.2.3,60.07514200028877,
4,go,piano_min50db.wav,,,,,1,7,15,3,,,,,,,,,,,,,,,,,,,120.35431168014183,None,120.36117180017754,None,None,120.36117180017754,121.86886180005968,122.38279520021752,None,0.0,1.4761934000998735,122.38279520021752,None,,,,008,001,2021_Dec_01_1501,psychophysicsHKA,2021.2.3,60.07514200028877,
2,go,piano_min30db.wav,,,,,2,0,16,1,,,,,,,,,,,,,,,,,,,123.8709830801934,None,123.87638170015998,None,None,123.87638170015998,125.38574750022963,125.8985483001452,None,2.0,0.8612842001020908,125.8985483001452,None,,,,008,001,2021_Dec_01_1501,psychophysicsHKA,2021.2.3,60.07514200028877,
6,nogo,silent.wav,,,,,2,1,17,5,,,,,,,,,,,,,,,,,,,126.77044258005917,None,126.77736330009066,None,None,126.77736330009066,128.28567380015738,128.8078854000196,None,-0.0,1.7053336999379098,128.8078854000196,None,,,,008,001,2021_Dec_01_1501,psychophysicsHKA,2021.2.3,60.07514200028877,
3,go,piano_min40db.wav,,,,,2,2,18,2,,,,,,,,,,,,,,,,,,,130.52128918021918,None,130.5273407001514,None,None,130.5273407001514,132.0356256000232,132.55319410003722,None,1.0,0.9411674998700619,132.55319410003722,None,,,,008,001,2021_Dec_01_1501,psychophysicsHKA,2021.2.3,60.07514200028877,
7,nogo,silent.wav,,,,,2,3,19,6,,,,,,,,,,,,,,,,,,,133.50410428009928,None,133.51134010008536,None,None,133.51134010008536,135.01881600008346,135.5401368001476,None,-0.0,1.5562485000118613,135.5401368001476,None,,,,008,001,2021_Dec_01_1501,psychophysicsHKA,2021.2.3,60.07514200028877,
8,nogo,silent.wav,,,,,2,4,20,7,,,,,,,,,,,,,,,,,,,137.10418208008633,None,137.10962050012313,None,None,137.10962050012313,138.6186881000176,139.13474430004135,None,0.0,0.9606594000943005,139.13474430004135,None,,,,008,001,2021_Dec_01_1501,psychophysicsHKA,2021.2.3,60.07514200028877,
5,nogo,silent.wav,,,,,2,5,21,4,,,,,,,,,,,,,,,,,,,140.10367698008196,142.1024306002073,140.11042400007136,None,None,140.11042400007136,141.61869900021702,142.14064230001532,None,0.0,1.3730827998369932,142.14064230001532,None,,,,008,001,2021_Dec_01_1501,psychophysicsHKA,2021.2.3,60.07514200028877,
4,go,piano_min50db.wav,,,,,2,6,22,3,,,,,,,,,,,,,,,,,,,143.5211366801057,None,143.52789420005865,None,None,143.52789420005865,145.0356900000479,145.55072160018608,None,-0.0,1.4431886000093073,145.55072160018608,None,,,,008,001,2021_Dec_01_1501,psychophysicsHKA,2021.2.3,60.07514200028877,
1,go,piano_min20db.wav,,,,,2,7,23,0,,,,,,,,,,,,,,,,,,,147.00441408012995,None,147.01036980003119,None,space,147.01036980003119,None,148.22738160006702,None,4.0,1.296194100053981,148.22738160006702,None,1.182236700085923,,,008,001,2021_Dec_01_1501,psychophysicsHKA,2021.2.3,60.07514200028877,
2,go,piano_min30db.wav,,,,,3,0,24,1,,,,,,,,,,,,,,,,,,,149.53717908002437,None,149.54385950020514,None,space,149.54385950020514,None,150.84684150014073,None,2.0,1.129222400020808,150.84684150014073,None,1.2732851998880506,,,008,001,2021_Dec_01_1501,psychophysicsHKA,2021.2.3,60.07514200028877,
8,nogo,silent.wav,,,,,3,1,25,7,,,,,,,,,,,,,,,,,,,151.98709568004125,None,151.99317130004056,None,None,151.99317130004056,153.502302700188,154.0158204000909,None,0.0,0.6624414999969304,154.0158204000909,None,,,,008,001,2021_Dec_01_1501,psychophysicsHKA,2021.2.3,60.07514200028877,
4,go,piano_min50db.wav,,,,,3,2,26,3,,,,,,,,,,,,,,,,,,,154.68867118023337,None,154.69548610015772,None,None,154.69548610015772,156.20221340004355,156.71749260020442,None,0.0,1.4590198998339474,156.71749260020442,None,,,,008,001,2021_Dec_01_1501,psychophysicsHKA,2021.2.3,60.07514200028877,
3,go,piano_min40db.wav,,,,,3,3,27,2,,,,,,,,,,,,,,,,,,,158.18805688009598,None,158.19426690018736,None,space,158.19426690018736,None,159.466910000192,None,1.0,0.6416404000483453,159.466910000192,None,1.230364999966696,,,008,001,2021_Dec_01_1501,psychophysicsHKA,2021.2.3,60.07514200028877,
6,nogo,silent.wav,,,,,3,4,28,5,,,,,,,,,,,,,,,,,,,160.12034798013048,None,160.1272859000601,None,None,160.1272859000601,161.63600560021587,162.1547696001362,None,-0.0,1.1397313999477774,162.1547696001362,None,,,,008,001,2021_Dec_01_1501,psychophysicsHKA,2021.2.3,60.07514200028877,
7,nogo,silent.wav,,,,,3,5,29,6,,,,,,,,,,,,,,,,,,,163.3036472801585,None,163.3096865999978,None,None,163.3096865999978,164.81913900002837,165.33805880020373,None,0.0,1.0061961999163032,165.33805880020373,None,,,,008,001,2021_Dec_01_1501,psychophysicsHKA,2021.2.3,60.07514200028877,
5,nogo,silent.wav,,,,,3,6,30,4,,,,,,,,,,,,,,,,,,,166.3543524802197,None,166.36011070013046,None,None,166.36011070013046,167.86881800019182,168.39275970007293,None,0.0,1.0406306001823395,168.39275970007293,None,,,,008,001,2021_Dec_01_1501,psychophysicsHKA,2021.2.3,60.07514200028877,
1,go,piano_min20db.wav,,,,,3,7,31,0,,,,,,,,,,,,,,,,,,,169.43813628023491,None,169.44440240017138,None,space,169.44440240017138,None,170.59809730015695,None,4.0,1.3204632999841124,170.59809730015695,None,1.100473599974066,,,008,001,2021_Dec_01_1501,psychophysicsHKA,2021.2.3,60.07514200028877,
6,nogo,silent.wav,,,,,4,0,32,5,,,,,,,,,,,,,,,,,,,171.92097788020038,None,171.92700620018877,None,None,171.92700620018877,173.43562730005942,173.94941990007646,None,-0.0,1.075561999808997,173.94941990007646,None,,,,008,001,2021_Dec_01_1501,psychophysicsHKA,2021.2.3,60.07514200028877,
4,go,piano_min50db.wav,,,,,4,1,33,3,,,,,,,,,,,,,,,,,,,175.0504850800615,None,175.05488920002244,None,space,175.05488920002244,None,176.19349790015258,None,1.0,0.9057374999392778,176.19349790015258,None,1.0896940999664366,,,008,001,2021_Dec_01_1501,psychophysicsHKA,2021.2.3,60.07514200028877,
2,go,piano_min30db.wav,,,,,4,2,34,1,,,,,,,,,,,,,,,,,,,177.1041174800601,None,177.10972390021197,None,space,177.10972390021197,None,178.14163610013202,None,2.0,0.5231268000788987,178.14163610013202,None,0.9870066000148654,,,008,001,2021_Dec_01_1501,psychophysicsHKA,2021.2.3,60.07514200028877,
3,go,piano_min40db.wav,,,,,4,3,35,2,,,,,,,,,,,,,,,,,,,178.67083598016762,None,178.67641680012457,None,space,178.67641680012457,None,179.73908120021224,None,1.0,0.754907599883154,179.73908120021224,None,1.0201477000955492,,,008,001,2021_Dec_01_1501,psychophysicsHKA,2021.2.3,60.07514200028877,
7,nogo,silent.wav,,,,,4,4,36,6,,,,,,,,,,,,,,,,,,,180.50400508004242,None,180.51100710011087,None,None,180.51100710011087,182.01881240005605,182.53171360003762,None,0.0,0.7784777001943439,182.53171360003762,None,,,,008,001,2021_Dec_01_1501,psychophysicsHKA,2021.2.3,60.07514200028877,
8,nogo,silent.wav,,,,,4,5,37,7,,,,,,,,,,,,,,,,,,,183.32053208020517,None,183.326532300096,None,None,183.326532300096,184.83584350021556,185.35295100021176,None,0.0,0.5406794999726117,185.35295100021176,None,,,,008,001,2021_Dec_01_1501,psychophysicsHKA,2021.2.3,60.07514200028877,
5,nogo,silent.wav,,,,,4,6,38,4,,,,,,,,,,,,,,,,,,,185.90400568018669,None,185.91027910006233,None,None,185.91027910006233,187.41881010006182,187.9348445001524,None,0.0,0.47470119991339743,187.9348445001524,None,,,,008,001,2021_Dec_01_1501,psychophysicsHKA,2021.2.3,60.07514200028877,
1,go,piano_min20db.wav,,,,,4,7,39,0,,,,,,,,,,,,,,,,,,,188.42037068023348,None,188.42673510010354,None,space,188.42673510010354,None,189.32142030005343,None,4.0,0.7420166998635978,189.32142030005343,None,0.8540019001811743,,,008,001,2021_Dec_01_1501,psychophysicsHKA,2021.2.3,60.07514200028877,
5,nogo,silent.wav,,,,,5,0,40,4,,,,,,,,,,,,,,,,,,,190.07074188017287,None,190.0765512001235,None,None,190.0765512001235,191.58550909999758,192.10192850022577,None,0.0,0.8242868001107126,192.10192850022577,None,,,,008,001,2021_Dec_01_1501,psychophysicsHKA,2021.2.3,60.07514200028877,
8,nogo,silent.wav,,,,,5,1,41,7,,,,,,,,,,,,,,,,,,,192.9372123800684,None,192.94359910022467,None,None,192.94359910022467,194.45219540013932,194.98009150009602,None,-0.0,0.7907895999960601,194.98009150009602,None,,,,008,001,2021_Dec_01_1501,psychophysicsHKA,2021.2.3,60.07514200028877,
4,go,piano_min50db.wav,,,,,5,2,42,3,,,,,,,,,,,,,,,,,,,195.77050788020716,None,195.77683650003746,None,space,195.77683650003746,None,196.8368550001178,None,1.0,0.6743028000928462,196.8368550001178,None,1.0241614000406116,,,008,001,2021_Dec_01_1501,psychophysicsHKA,2021.2.3,60.07514200028877,
6,nogo,silent.wav,,,,,5,3,43,5,,,,,,,,,,,,,,,,,,,197.52063418012114,None,197.52729160012677,None,None,197.52729160012677,199.03580820001662,199.55440950021148,None,-0.0,1.5732870001811534,199.55440950021148,None,,,,008,001,2021_Dec_01_1501,psychophysicsHKA,2021.2.3,60.07514200028877,
3,go,piano_min40db.wav,,,,,5,4,44,2,,,,,,,,,,,,,,,,,,,201.13724608016202,None,201.14355160016567,None,space,201.14355160016567,None,202.07061150018126,None,2.0,0.9566009000409395,202.07061150018126,None,0.8890398999210447,,,008,001,2021_Dec_01_1501,psychophysicsHKA,2021.2.3,60.07514200028877,
2,go,piano_min30db.wav,,,,,5,5,45,1,,,,,,,,,,,,,,,,,,,203.0376926802099,None,203.0430436001625,None,space,203.0430436001625,None,204.00214770017192,None,3.0,0.7248949999921024,204.00214770017192,None,0.9258276000618935,,,008,001,2021_Dec_01_1501,psychophysicsHKA,2021.2.3,60.07514200028877,
7,nogo,silent.wav,,,,,5,6,46,6,,,,,,,,,,,,,,,,,,,204.73764368002304,None,204.7430602000095,None,None,204.7430602000095,206.25222310004756,206.77448300016113,None,0.0,0.7064735000021756,206.77448300016113,None,,,,008,001,2021_Dec_01_1501,psychophysicsHKA,2021.2.3,60.07514200028877,
1,go,piano_min20db.wav,,,,,5,7,47,0,,,,,,,,,,,,,,,,,,,207.48755178013818,None,207.49279470019974,None,space,207.49279470019974,None,208.42969690007158,None,4.0,1.0213493998162448,208.42969690007158,None,0.8918884000740945,,,008,001,2021_Dec_01_1501,psychophysicsHKA,2021.2.3,60.07514200028877,
8,nogo,silent.wav,,,,,6,0,48,7,,,,,,,,,,,,,,,,,,,209.45426748013125,None,209.45955380005762,None,None,209.45955380005762,210.96912460005842,211.48537100013345,None,0.0,0.8252638999838382,211.48537100013345,None,,,,008,001,2021_Dec_01_1501,psychophysicsHKA,2021.2.3,60.07514200028877,
6,nogo,silent.wav,,,,,6,1,49,5,,,,,,,,,,,,,,,,,,,212.32073078020477,None,212.3268226000946,None,space,212.3268226000946,None,213.30972920008935,None,0.0,1.1028303001075983,213.30972920008935,None,0.9380089999176562,,,008,001,2021_Dec_01_1501,psychophysicsHKA,2021.2.3,60.07514200028877,
7,nogo,silent.wav,,,,,6,2,50,6,,,,,,,,,,,,,,,,,,,214.42032998003998,None,214.4254801000934,None,None,214.4254801000934,215.93552480009384,216.46103370003402,None,-0.0,0.8412067999597639,216.46103370003402,None,,,,008,001,2021_Dec_01_1501,psychophysicsHKA,2021.2.3,60.07514200028877,
2,go,piano_min30db.wav,,,,,6,3,51,1,,,,,,,,,,,,,,,,,,,217.30417118007318,None,217.31047090003267,None,space,217.31047090003267,None,218.42922410019673,None,2.0,0.8867504999507219,218.42922410019673,None,1.074478599941358,,,008,001,2021_Dec_01_1501,psychophysicsHKA,2021.2.3,60.07514200028877,
4,go,piano_min50db.wav,,,,,6,4,52,3,,,,,,,,,,,,,,,,,,,219.32082888013684,None,219.32691180007532,None,space,219.32691180007532,None,220.55790280015208,None,1.0,0.9389710000250489,220.55790280015208,None,1.1859425001312047,,,008,001,2021_Dec_01_1501,psychophysicsHKA,2021.2.3,60.07514200028877,
1,go,piano_min20db.wav,,,,,6,5,53,0,,,,,,,,,,,,,,,,,,,221.50410688011908,None,221.50966720003635,None,space,221.50966720003635,None,222.4361780001782,None,4.0,0.6073321001604199,222.4361780001782,None,0.8911087999586016,,,008,001,2021_Dec_01_1501,psychophysicsHKA,2021.2.3,60.07514200028877,
5,nogo,silent.wav,,,,,6,6,54,4,,,,,,,,,,,,,,,,,,,223.05458318018356,None,223.05983810010366,None,None,223.05983810010366,224.56894460017793,225.09038140019402,None,-0.0,2.3908415001351386,225.09038140019402,None,,,,008,001,2021_Dec_01_1501,psychophysicsHKA,2021.2.3,60.07514200028877,
3,go,piano_min40db.wav,,,,,6,7,55,2,,,,,,,,,,,,,,,,,,,227.48757798010485,None,227.4941500001587,None,space,227.4941500001587,None,228.50279500009492,None,2.0,0.9407369000837207,228.50279500009492,None,0.9704796997830272,,,008,001,2021_Dec_01_1501,psychophysicsHKA,2021.2.3,60.07514200028877,
7,nogo,silent.wav,,,,,7,0,56,6,,,,,,,,,,,,,,,,,,,229.45398258017377,None,229.4603991000913,None,None,229.4603991000913,230.9689639999997,231.4874114000704,None,0.0,0.7565264999866486,231.4874114000704,None,,,,008,001,2021_Dec_01_1501,psychophysicsHKA,2021.2.3,60.07514200028877,
8,nogo,silent.wav,,,,,7,1,57,7,,,,,,,,,,,,,,,,,,,232.25453108008952,None,232.25979989999905,None,None,232.25979989999905,233.7689401002135,234.28757860022597,None,0.0,1.0065532999578863,234.28757860022597,None,,,,008,001,2021_Dec_01_1501,psychophysicsHKA,2021.2.3,60.07514200028877,
1,go,piano_min20db.wav,,,,,7,2,58,0,,,,,,,,,,,,,,,,,,,235.3045064801816,None,235.31049270019867,None,space,235.31049270019867,None,236.30067040002905,None,4.0,0.9249657997861505,236.30067040002905,None,0.9460791999008507,,,008,001,2021_Dec_01_1501,psychophysicsHKA,2021.2.3,60.07514200028877,
5,nogo,silent.wav,,,,,7,3,59,4,,,,,,,,,,,,,,,,,,,237.2371537801344,None,237.24274730007164,None,None,237.24274730007164,238.7524618001189,239.26082290010527,None,0.0,1.2995122000575066,239.26082290010527,None,,,,008,001,2021_Dec_01_1501,psychophysicsHKA,2021.2.3,60.07514200028877,
4,go,piano_min50db.wav,,,,,7,4,60,3,,,,,,,,,,,,,,,,,,,240.57064108010383,None,240.57647060020827,None,None,240.57647060020827,242.08575120009482,242.6006378000602,None,0.0,0.6932713000569493,242.6006378000602,None,,,,008,001,2021_Dec_01_1501,psychophysicsHKA,2021.2.3,60.07514200028877,
2,go,piano_min30db.wav,,,,,7,5,61,1,,,,,,,,,,,,,,,,,,,243.3042867800221,None,243.3100253001321,None,space,243.3100253001321,None,244.44439360010438,None,2.0,1.1542368999216706,244.44439360010438,None,1.0908413999713957,,,008,001,2021_Dec_01_1501,psychophysicsHKA,2021.2.3,60.07514200028877,
6,nogo,silent.wav,,,,,7,6,62,5,,,,,,,,,,,,,,,,,,,245.604438080173,None,245.60930370003916,None,None,245.60930370003916,247.11878320015967,247.636537700193,None,-0.0,2.1428201999515295,247.636537700193,None,,,,008,001,2021_Dec_01_1501,psychophysicsHKA,2021.2.3,60.07514200028877,
3,go,piano_min40db.wav,,,,,7,7,63,2,,,,,,,,,,,,,,,,,,,249.787222480122,None,249.79382410016842,None,space,249.79382410016842,None,250.77090930007398,None,1.0,0.6906656001228839,250.77090930007398,None,0.9426663001067936,,,008,001,2021_Dec_01_1501,psychophysicsHKA,2021.2.3,60.07514200028877,
,,,,,,,,,,,,,,,,,,,,,,,,,,,,,,,,,,,,,,,,,,,251.47046370012686,None,,,,,,,
