trial,response,stimFile,prac_trials.thisRepN,prac_trials.thisTrialN,prac_trials.thisN,prac_trials.thisIndex,trials.thisRepN,trials.thisTrialN,trials.thisN,trials.thisIndex,text.started,text.stopped,text_3.started,text_3.stopped,sound_p.started,sound_p.stopped,fixation.started,fixation.stopped,key_resp.keys,key_resp.started,key_resp.stopped,key_resp.rt,text_2.started,text_2.stopped,key_resp_3.keys,key_resp_3.rt,key_resp_3.started,key_resp_3.stopped,sound_1.started,sound_1.stopped,fix.started,fix.stopped,key_resp_2.keys,key_resp_2.rt,key_resp_2.started,key_resp_2.stopped,text_4.started,text_4.stopped,slider_2.response,slider_2.rt,slider_2.started,slider_2.stopped,text_5.started,text_5.stopped,participant,session,date,expName,psychopyVersion,frameRate,
6,nogo,silent.wav,0,0,0,5,,,,,26.212146300124004,None,31.207371400203556,None,33.22356544015929,None,33.24236140004359,None,None,33.24236140004359,34.75724090007134,,,,,,,,,,,,,,,,,,,,,,,,010,001,2021_Dec_01_1517,psychophysicsHKA,2021.2.3,59.89383212385453,
3,go,piano_min40db.wav,0,1,1,2,,,,,,,,,35.22413913998753,None,35.22012810013257,None,space,35.22012810013257,None,1.3992750998586416,,,,,,,,,,,,,,,,,,,,,,,010,001,2021_Dec_01_1517,psychophysicsHKA,2021.2.3,59.89383212385453,
1,go,piano_min20db.wav,0,2,2,0,,,,,,,,,36.65735094016418,None,36.65680730016902,None,None,36.65680730016902,38.15775570017286,,,,,,,,,,,,,,,,,,,,,,,,010,001,2021_Dec_01_1517,psychophysicsHKA,2021.2.3,59.89383212385453,
8,nogo,silent.wav,0,3,3,7,,,,,,,,,38.67401404003613,38.672368600033224,38.672368600033224,38.672368600033224,None,38.672368600033224,40.174123800126836,,,,,,,,,,,,,,,,,,,,,,,,010,001,2021_Dec_01_1517,psychophysicsHKA,2021.2.3,59.89383212385453,
7,nogo,silent.wav,0,4,4,6,,,,,,,,,40.690811740001664,40.68870609998703,40.68870609998703,40.68870609998703,None,40.68870609998703,42.190475300187245,,,,,,,,,,,,,,,,,,,,,,,,010,001,2021_Dec_01_1517,psychophysicsHKA,2021.2.3,59.89383212385453,
4,go,piano_min50db.wav,0,5,5,3,,,,,,,,,42.70746144000441,44.707702700048685,42.710563000058755,42.710563000058755,None,42.710563000058755,44.22419980005361,,,,,,,,,,,,,,,,,,,,,,,,010,001,2021_Dec_01_1517,psychophysicsHKA,2021.2.3,59.89383212385453,
5,nogo,silent.wav,0,6,6,4,,,,,,,,,44.74101064004935,None,44.7367130999919,44.7367130999919,None,44.7367130999919,46.24040780006908,,,,,,,,,,,,,,,,,,,,,,,,010,001,2021_Dec_01_1517,psychophysicsHKA,2021.2.3,59.89383212385453,
2,go,piano_min30db.wav,0,7,7,1,,,,,,,,,46.757740640081465,46.762745100073516,46.762745100073516,46.762745100073516,space,46.762745100073516,None,1.3928324000444263,,,,,,,,,,,,,,,,,,,,,,,010,001,2021_Dec_01_1517,psychophysicsHKA,2021.2.3,59.89383212385453,
1,go,piano_min20db.wav,1,0,8,0,,,,,,,,,48.17408057011198,50.17433170019649,48.18121130019426,None,None,48.18121130019426,49.69062600005418,,,,,,,,,,,,,,,,,,,,,,,,010,001,2021_Dec_01_1517,psychophysicsHKA,2021.2.3,59.89383212385453,
8,nogo,silent.wav,1,1,9,7,,,,,,,,,50.20763964019716,None,50.20488540013321,50.20488540013321,None,50.20488540013321,51.70731670013629,,,,,,,,,,,,,,,,,,,,,,,,010,001,2021_Dec_01_1517,psychophysicsHKA,2021.2.3,59.89383212385453,
2,go,piano_min30db.wav,1,2,10,1,,,,,,,,,52.224139240104705,52.222000600071624,52.222000600071624,52.222000600071624,space,52.222000600071624,None,0.973291700007394,,,,,,,,,,,,,,,,,,,,,,,010,001,2021_Dec_01_1517,psychophysicsHKA,2021.2.3,59.89383212385453,
4,go,piano_min50db.wav,1,3,11,3,,,,,,,,,53.24074074020609,55.24084890005179,53.24543030001223,None,None,53.24543030001223,54.7574855000712,,,,,,,,,,,,,,,,,,,,,,,,010,001,2021_Dec_01_1517,psychophysicsHKA,2021.2.3,59.89383212385453,
6,nogo,silent.wav,1,4,12,5,,,,,,,,,55.274156840052456,None,55.272438700078055,55.272438700078055,None,55.272438700078055,56.77376860007644,,,,,,,,,,,,,,,,,,,,,,,,010,001,2021_Dec_01_1517,psychophysicsHKA,2021.2.3,59.89383212385453,
3,go,piano_min40db.wav,1,5,13,2,,,,,,,,,57.29105594009161,57.28868060000241,57.28868060000241,57.28868060000241,space,57.28868060000241,None,0.7865003999322653,,,,,,,,,,,,,,,,,,,,,,,010,001,2021_Dec_01_1517,psychophysicsHKA,2021.2.3,59.89383212385453,
5,nogo,silent.wav,1,6,14,4,,,,,,,,,58.107232340145856,None,58.09968760004267,None,None,58.09968760004267,59.60756830009632,,,,,,,,,,,,,,,,,,,,,,,,010,001,2021_Dec_01_1517,psychophysicsHKA,2021.2.3,59.89383212385453,
7,nogo,silent.wav,1,7,15,6,,,,,,,,,60.12415414000861,60.12233640020713,60.12233640020713,60.12233640020713,None,60.12233640020713,61.62390600005165,,,,,,,,,,,,,,,,,,,,,,,,010,001,2021_Dec_01_1517,psychophysicsHKA,2021.2.3,59.89383212385453,
,,,,,,,,,,,,,,,,,,,,,,,62.126672400161624,None,space,29.916640699841082,62.126672400161624,None,,,,,,,,,,,,,,,,,010,001,2021_Dec_01_1517,psychophysicsHKA,2021.2.3,59.89383212385453,
1,go,piano_min20db.wav,,,,,0,0,0,0,,,,,,,,,,,,,,,,,,,92.09097954002209,None,92.08937140018679,None,space,0.9621409999672323,92.08937140018679,None,93.10404880018905,None,4.0,2.8231560999993235,93.10404880018905,None,,,010,001,2021_Dec_01_1517,psychophysicsHKA,2021.2.3,59.89383212385453,
6,nogo,silent.wav,,,,,0,1,1,5,,,,,,,,,,,,,,,,,,,95.9266651700018,None,95.93261120002717,None,None,,95.93261120002717,97.44045470003039,97.96310030017048,None,-0.0,2.658296899870038,97.96310030017048,None,,,010,001,2021_Dec_01_1517,psychophysicsHKA,2021.2.3,59.89383212385453,
7,nogo,silent.wav,,,,,0,2,2,6,,,,,,,,,,,,,,,,,,,100.62664677004796,None,100.63219480006956,None,None,,100.63219480006956,102.14045090018772,102.65699920011684,None,0.0,1.4746030999813229,102.65699920011684,None,,,010,001,2021_Dec_01_1517,psychophysicsHKA,2021.2.3,59.89383212385453,
4,go,piano_min50db.wav,,,,,0,3,3,3,,,,,,,,,,,,,,,,,,,104.14225677016657,None,104.14873090013862,None,space,1.1909717998933047,104.14873090013862,None,105.37871720013209,None,1.0,1.520769099937752,105.37871720013209,None,,,010,001,2021_Dec_01_1517,psychophysicsHKA,2021.2.3,59.89383212385453,
5,nogo,silent.wav,,,,,0,4,4,4,,,,,,,,,,,,,,,,,,,106.90976957010571,None,106.9162671000231,None,None,,106.9162671000231,108.4239402001258,108.93766210018657,None,-0.0,0.9938312000595033,108.93766210018657,None,,,010,001,2021_Dec_01_1517,psychophysicsHKA,2021.2.3,59.89383212385453,
8,nogo,silent.wav,,,,,0,5,5,7,,,,,,,,,,,,,,,,,,,109.942424270208,None,109.9481122000143,None,None,,109.9481122000143,111.45730910007842,111.96284120017663,None,0.0,0.8020585000049323,111.96284120017663,None,,,010,001,2021_Dec_01_1517,psychophysicsHKA,2021.2.3,59.89383212385453,
2,go,piano_min30db.wav,,,,,0,6,6,1,,,,,,,,,,,,,,,,,,,112.79479894018732,None,112.78572200005874,None,space,0.969897799892351,112.78572200005874,None,113.79147820011713,None,4.0,1.27379749994725,113.79147820011713,None,,,010,001,2021_Dec_01_1517,psychophysicsHKA,2021.2.3,59.89383212385453,
3,go,piano_min40db.wav,,,,,0,7,7,2,,,,,,,,,,,,,,,,,,,115.07622397004161,None,115.08213460003026,None,None,,115.08213460003026,116.590677900007,117.1071166000329,None,3.0,2.0941860999446362,117.1071166000329,None,,,010,001,2021_Dec_01_1517,psychophysicsHKA,2021.2.3,59.89383212385453,
2,go,piano_min30db.wav,,,,,1,0,8,1,,,,,,,,,,,,,,,,,,,119.20991537009832,None,119.21651560021564,None,space,0.8747459000442177,119.21651560021564,None,120.12784270010889,None,4.0,0.8360242000781,120.12784270010889,None,,,010,001,2021_Dec_01_1517,psychophysicsHKA,2021.2.3,59.89383212385453,
6,nogo,silent.wav,,,,,1,1,9,5,,,,,,,,,,,,,,,,,,,120.97458607016597,122.97430480015464,120.98117440007627,None,None,,120.98117440007627,122.49054160015658,123.01364370016381,None,0.0,1.3925516000017524,123.01364370016381,None,,,010,001,2021_Dec_01_1517,psychophysicsHKA,2021.2.3,59.89383212385453,
3,go,piano_min40db.wav,,,,,1,2,10,2,,,,,,,,,,,,,,,,,,,124.42682163999416,None,124.41675910004415,None,space,1.418634400004521,124.41675910004415,None,125.88419560017064,None,3.0,1.8709290002007037,125.88419560017064,None,,,010,001,2021_Dec_01_1517,psychophysicsHKA,2021.2.3,59.89383212385453,
5,nogo,silent.wav,,,,,1,3,11,4,,,,,,,,,,,,,,,,,,,127.7758276402019,None,127.76642730017193,None,None,,127.76642730017193,129.27396030002274,129.78795070014894,None,0.0,2.061471000080928,129.78795070014894,None,,,010,001,2021_Dec_01_1517,psychophysicsHKA,2021.2.3,59.89383212385453,
1,go,piano_min20db.wav,,,,,1,4,12,0,,,,,,,,,,,,,,,,,,,131.8595269700745,None,131.8666132001672,None,space,0.9287945001851767,131.8666132001672,None,132.83667500014417,None,4.0,0.7101793000474572,132.83667500014417,None,,,010,001,2021_Dec_01_1517,psychophysicsHKA,2021.2.3,59.89383212385453,
7,nogo,silent.wav,,,,,1,5,13,6,,,,,,,,,,,,,,,,,,,133.55958057020325,None,133.56598290009424,None,None,,133.56598290009424,135.07411330007017,135.58404009998776,None,-0.0,1.0988417000044137,135.58404009998776,None,,,010,001,2021_Dec_01_1517,psychophysicsHKA,2021.2.3,59.89383212385453,
4,go,piano_min50db.wav,,,,,1,6,14,3,,,,,,,,,,,,,,,,,,,136.69236517010722,None,136.6989337000996,None,space,1.2167007999960333,136.6989337000996,None,137.96198670007288,None,1.0,1.0426325998269022,137.96198670007288,None,,,010,001,2021_Dec_01_1517,psychophysicsHKA,2021.2.3,59.89383212385453,
8,nogo,silent.wav,,,,,1,7,15,7,,,,,,,,,,,,,,,,,,,139.0105129700387,None,139.0178920000326,None,None,,139.0178920000326,140.52397840004414,141.04460300016217,None,-0.0,2.724858900066465,141.04460300016217,None,,,010,001,2021_Dec_01_1517,psychophysicsHKA,2021.2.3,59.89383212385453,
6,nogo,silent.wav,,,,,2,0,16,5,,,,,,,,,,,,,,,,,,,143.77641567017417,None,143.78271940001287,None,None,,143.78271940001287,145.2905153001193,145.80927050020546,None,0.0,1.1403657000046223,145.80927050020546,None,,,010,001,2021_Dec_01_1517,psychophysicsHKA,2021.2.3,59.89383212385453,
2,go,piano_min30db.wav,,,,,2,1,17,1,,,,,,,,,,,,,,,,,,,146.95914007013198,None,146.96537740016356,None,space,1.078228099970147,146.96537740016356,None,148.10486300010234,None,4.0,1.117746700067073,148.10486300010234,None,,,010,001,2021_Dec_01_1517,psychophysicsHKA,2021.2.3,59.89383212385453,
8,nogo,silent.wav,,,,,2,2,18,7,,,,,,,,,,,,,,,,,,,149.22724807017948,None,149.23343760007992,None,None,,149.23343760007992,150.74089270015247,151.26516900002025,None,-0.0,0.9221367000136524,151.26516900002025,None,,,010,001,2021_Dec_01_1517,psychophysicsHKA,2021.2.3,59.89383212385453,
1,go,piano_min20db.wav,,,,,2,3,19,0,,,,,,,,,,,,,,,,,,,152.19261447002646,None,152.19812040007673,None,space,0.9492168999277055,152.19812040007673,None,153.2042207000777,None,4.0,0.8487134999595582,153.2042207000777,None,,,010,001,2021_Dec_01_1517,psychophysicsHKA,2021.2.3,59.89383212385453,
7,nogo,silent.wav,,,,,2,4,20,6,,,,,,,,,,,,,,,,,,,154.05981366999913,None,154.06621509999968,None,None,,154.06621509999968,155.57405020017177,156.07919570012018,None,-0.0,1.2841558998916298,156.07919570012018,None,,,010,001,2021_Dec_01_1517,psychophysicsHKA,2021.2.3,59.89383212385453,
5,nogo,silent.wav,,,,,2,5,21,4,,,,,,,,,,,,,,,,,,,157.37615417002235,None,157.3829448001925,None,None,,157.3829448001925,158.89068479998969,159.408475600183,None,1.0,2.45949719985947,159.408475600183,None,,,010,001,2021_Dec_01_1517,psychophysicsHKA,2021.2.3,59.89383212385453,
3,go,piano_min40db.wav,,,,,2,6,22,2,,,,,,,,,,,,,,,,,,,161.87572176998947,None,161.8821547999978,None,None,,161.8821547999978,163.3909653001465,163.90589290019125,None,2.0,1.560434800107032,163.90589290019125,None,,,010,001,2021_Dec_01_1517,psychophysicsHKA,2021.2.3,59.89383212385453,
4,go,piano_min50db.wav,,,,,2,7,23,3,,,,,,,,,,,,,,,,,,,165.4769496700028,None,165.4833101001568,None,space,1.2479264000430703,165.4833101001568,None,166.77476280019619,None,1.0,0.7083201999776065,166.77476280019619,None,,,010,001,2021_Dec_01_1517,psychophysicsHKA,2021.2.3,59.89383212385453,
6,nogo,silent.wav,,,,,3,0,24,5,,,,,,,,,,,,,,,,,,,167.49342757009435,None,167.4984422000125,None,None,,167.4984422000125,169.00751300016418,169.52119520003907,None,0.0,0.7780152000486851,169.52119520003907,None,,,010,001,2021_Dec_01_1517,psychophysicsHKA,2021.2.3,59.89383212385453,
2,go,piano_min30db.wav,,,,,3,1,25,1,,,,,,,,,,,,,,,,,,,170.30961396999191,None,170.31595100020058,None,space,0.9917358998209238,170.31595100020058,None,171.34297080012038,None,4.0,0.9892113001551479,171.34297080012038,None,,,010,001,2021_Dec_01_1517,psychophysicsHKA,2021.2.3,59.89383212385453,
3,go,piano_min40db.wav,,,,,3,2,26,2,,,,,,,,,,,,,,,,,,,172.34255677007604,None,172.34904910018668,None,space,1.1024122999515384,172.34904910018668,None,173.5011573000811,None,3.0,2.6672853000927716,173.5011573000811,None,,,010,001,2021_Dec_01_1517,psychophysicsHKA,2021.2.3,59.89383212385453,
5,nogo,silent.wav,,,,,3,3,27,4,,,,,,,,,,,,,,,,,,,176.17717687005643,None,176.18351470003836,None,None,,176.18351470003836,177.69092700001784,178.21018840000033,None,-0.0,0.8262122999876738,178.21018840000033,None,,,010,001,2021_Dec_01_1517,psychophysicsHKA,2021.2.3,59.89383212385453,
1,go,piano_min20db.wav,,,,,3,4,28,0,,,,,,,,,,,,,,,,,,,179.0425445701694,None,179.0484072000254,None,space,0.8827974998857826,179.0484072000254,None,179.97693310002796,None,4.0,1.0088121998123825,179.97693310002796,None,,,010,001,2021_Dec_01_1517,psychophysicsHKA,2021.2.3,59.89383212385453,
8,nogo,silent.wav,,,,,3,5,29,7,,,,,,,,,,,,,,,,,,,180.99299057002645,None,180.99937149998732,None,None,,180.99937149998732,182.50744820013642,183.0263588000089,None,0.0,0.9909783001057804,183.0263588000089,None,,,010,001,2021_Dec_01_1517,psychophysicsHKA,2021.2.3,59.89383212385453,
4,go,piano_min50db.wav,,,,,3,6,30,3,,,,,,,,,,,,,,,,,,,184.02628087007906,None,184.03278990020044,None,space,0.9865554999560118,184.03278990020044,None,185.0649225001689,None,1.0,0.5890420998912305,185.0649225001689,None,,,010,001,2021_Dec_01_1517,psychophysicsHKA,2021.2.3,59.89383212385453,
7,nogo,silent.wav,,,,,3,7,31,6,,,,,,,,,,,,,,,,,,,185.65938457020093,None,185.6661730001215,None,None,,185.6661730001215,187.17406740016304,187.68934700009413,None,0.0,0.8793687999714166,187.68934700009413,None,,,010,001,2021_Dec_01_1517,psychophysicsHKA,2021.2.3,59.89383212385453,
4,go,piano_min50db.wav,,,,,4,0,32,3,,,,,,,,,,,,,,,,,,,188.57635197008494,None,188.58177840011194,None,space,1.205498400144279,188.58177840011194,None,189.83131889998913,None,1.0,0.6557856001891196,189.83131889998913,None,,,010,001,2021_Dec_01_1517,psychophysicsHKA,2021.2.3,59.89383212385453,
6,nogo,silent.wav,,,,,4,1,33,5,,,,,,,,,,,,,,,,,,,190.49254346999805,None,190.49847810016945,None,None,,190.49847810016945,192.0075639002025,192.52435130020604,None,-0.0,0.8611745000816882,192.52435130020604,None,,,010,001,2021_Dec_01_1517,psychophysicsHKA,2021.2.3,59.89383212385453,
1,go,piano_min20db.wav,,,,,4,2,34,0,,,,,,,,,,,,,,,,,,,193.39359877014067,None,193.40000060014427,None,space,0.8994501000270247,193.40000060014427,None,194.34030660009012,None,4.0,0.5594514000695199,194.34030660009012,None,,,010,001,2021_Dec_01_1517,psychophysicsHKA,2021.2.3,59.89383212385453,
3,go,piano_min40db.wav,,,,,4,3,35,2,,,,,,,,,,,,,,,,,,,194.9101240701275,None,194.91705220006406,None,None,,194.91705220006406,196.42404200020246,196.94246200006455,None,1.0,1.5888213999569416,196.94246200006455,None,,,010,001,2021_Dec_01_1517,psychophysicsHKA,2021.2.3,59.89383212385453,
2,go,piano_min30db.wav,,,,,4,4,36,1,,,,,,,,,,,,,,,,,,,198.5412250700174,None,198.5479423000943,None,space,1.0313363999594003,198.5479423000943,None,199.6250106000807,None,3.0,0.8749030998442322,199.6250106000807,None,,,010,001,2021_Dec_01_1517,psychophysicsHKA,2021.2.3,59.89383212385453,
7,nogo,silent.wav,,,,,4,5,37,6,,,,,,,,,,,,,,,,,,,200.50942547002342,None,200.51580300019123,None,None,,200.51580300019123,202.0242078001611,202.54657840006985,None,0.0,1.0749649999197572,202.54657840006985,None,,,010,001,2021_Dec_01_1517,psychophysicsHKA,2021.2.3,59.89383212385453,
5,nogo,silent.wav,,,,,4,6,38,4,,,,,,,,,,,,,,,,,,,203.62672317016404,None,203.6331898001954,None,None,,203.6331898001954,205.14083600020967,205.65378410019912,None,0.0,2.0957667999900877,205.65378410019912,None,,,010,001,2021_Dec_01_1517,psychophysicsHKA,2021.2.3,59.89383212385453,
8,nogo,silent.wav,,,,,4,7,39,7,,,,,,,,,,,,,,,,,,,207.75975197006483,None,207.7665554000996,None,None,,207.7665554000996,209.27395470021293,209.79502389999107,None,0.0,1.3093646001070738,209.79502389999107,None,,,010,001,2021_Dec_01_1517,psychophysicsHKA,2021.2.3,59.89383212385453,
7,nogo,silent.wav,,,,,5,0,40,6,,,,,,,,,,,,,,,,,,,211.1093994701514,None,211.11583550018258,None,None,,211.11583550018258,212.6244104001671,213.15079620014876,None,0.0,0.9882742001209408,213.15079620014876,None,,,010,001,2021_Dec_01_1517,psychophysicsHKA,2021.2.3,59.89383212385453,
1,go,piano_min20db.wav,,,,,5,1,41,0,,,,,,,,,,,,,,,,,,,214.1422848700313,None,214.14911680016667,None,space,0.9342319001443684,214.14911680016667,None,215.12852770020254,None,4.0,0.6237673000432551,215.12852770020254,None,,,010,001,2021_Dec_01_1517,psychophysicsHKA,2021.2.3,59.89383212385453,
2,go,piano_min30db.wav,,,,,5,2,42,1,,,,,,,,,,,,,,,,,,,215.76036457007285,None,215.76674490002915,None,space,1.0925138001330197,215.76674490002915,None,216.89058110001497,None,2.0,1.2088359000626951,216.89058110001497,None,,,010,001,2021_Dec_01_1517,psychophysicsHKA,2021.2.3,59.89383212385453,
5,nogo,silent.wav,,,,,5,3,43,4,,,,,,,,,,,,,,,,,,,218.10954397020396,None,218.11607360001653,None,None,,218.11607360001653,219.62445440003648,220.14576340001076,None,0.0,1.142134299967438,220.14576340001076,None,,,010,001,2021_Dec_01_1517,psychophysicsHKA,2021.2.3,59.89383212385453,
4,go,piano_min50db.wav,,,,,5,4,44,3,,,,,,,,,,,,,,,,,,,221.29333487001713,None,221.29848400014453,None,space,1.0489201000891626,221.29848400014453,None,222.3940363000147,None,1.0,0.6750075998716056,222.3940363000147,None,,,010,001,2021_Dec_01_1517,psychophysicsHKA,2021.2.3,59.89383212385453,
3,go,piano_min40db.wav,,,,,5,5,45,2,,,,,,,,,,,,,,,,,,,223.07636777020525,None,223.08322030003183,None,space,1.1202031001448631,223.08322030003183,None,224.250590500189,None,2.0,0.924321300117299,224.250590500189,None,,,010,001,2021_Dec_01_1517,psychophysicsHKA,2021.2.3,59.89383212385453,
6,nogo,silent.wav,,,,,5,6,46,5,,,,,,,,,,,,,,,,,,,225.17613927007187,227.1744054001756,225.1817395000253,None,None,,225.1817395000253,226.6907447001431,227.20705280010588,None,0.0,1.3099696999415755,227.20705280010588,None,,,010,001,2021_Dec_01_1517,psychophysicsHKA,2021.2.3,59.89383212385453,
8,nogo,silent.wav,,,,,5,7,47,7,,,,,,,,,,,,,,,,,,,228.52618927008007,None,228.53234430006705,None,None,,228.53234430006705,230.0410421001725,230.55835920013487,None,0.0,3.424786400049925,230.55835920013487,None,,,010,001,2021_Dec_01_1517,psychophysicsHKA,2021.2.3,59.89383212385453,
8,nogo,silent.wav,,,,,6,0,48,7,,,,,,,,,,,,,,,,,,,233.99267976998817,None,233.99955160007812,None,None,,233.99955160007812,235.5074224001728,236.02020830009133,None,0.0,1.3124206000939012,236.02020830009133,None,,,010,001,2021_Dec_01_1517,psychophysicsHKA,2021.2.3,59.89383212385453,
7,nogo,silent.wav,,,,,6,1,49,6,,,,,,,,,,,,,,,,,,,237.34249867021572,None,237.34850349999033,None,None,,237.34850349999033,238.85785660007969,239.3729732001666,None,-0.0,0.7092031000647694,239.3729732001666,None,,,010,001,2021_Dec_01_1517,psychophysicsHKA,2021.2.3,59.89383212385453,
1,go,piano_min20db.wav,,,,,6,2,50,0,,,,,,,,,,,,,,,,,,,240.09267167013604,None,240.09918160014786,None,space,1.0801814999431372,240.09918160014786,None,241.22586690005846,None,3.0,0.9405785000417382,241.22586690005846,None,,,010,001,2021_Dec_01_1517,psychophysicsHKA,2021.2.3,59.89383212385453,
3,go,piano_min40db.wav,,,,,6,3,51,2,,,,,,,,,,,,,,,,,,,242.17724067007657,None,242.18356500007212,None,space,1.283876100089401,242.18356500007212,None,243.51597010018304,None,1.0,0.6539090999867767,243.51597010018304,None,,,010,001,2021_Dec_01_1517,psychophysicsHKA,2021.2.3,59.89383212385453,
5,nogo,silent.wav,,,,,6,4,52,4,,,,,,,,,,,,,,,,,,,244.17680577014107,None,244.18290720018558,None,None,,244.18290720018558,245.69072900013998,246.20598269999027,None,0.0,0.9921774999238551,246.20598269999027,None,,,010,001,2021_Dec_01_1517,psychophysicsHKA,2021.2.3,59.89383212385453,
6,nogo,silent.wav,,,,,6,5,53,5,,,,,,,,,,,,,,,,,,,247.2092859701952,None,247.21587680000812,None,None,,247.21587680000812,248.7239611002151,249.23793750000186,None,0.0,0.9776345998980105,249.23793750000186,None,,,010,001,2021_Dec_01_1517,psychophysicsHKA,2021.2.3,59.89383212385453,
2,go,piano_min30db.wav,,,,,6,6,54,1,,,,,,,,,,,,,,,,,,,250.22613077017013,None,250.23244040017016,None,space,0.9949143999256194,250.23244040017016,None,251.27410520007834,None,2.0,0.6591262000147253,251.27410520007834,None,,,010,001,2021_Dec_01_1517,psychophysicsHKA,2021.2.3,59.89383212385453,
4,go,piano_min50db.wav,,,,,6,7,55,3,,,,,,,,,,,,,,,,,,,251.9441051700851,None,251.94981430005282,None,None,,251.94981430005282,253.4580351000186,253.97438430017792,None,0.0,1.14089829986915,253.97438430017792,None,,,010,001,2021_Dec_01_1517,psychophysicsHKA,2021.2.3,59.89383212385453,
1,go,piano_min20db.wav,,,,,7,0,56,0,,,,,,,,,,,,,,,,,,,255.126107470016,None,255.1322790000122,None,space,0.8633010000921786,255.1322790000122,None,256.0527538000606,None,4.0,0.5321333999745548,256.0527538000606,None,,,010,001,2021_Dec_01_1517,psychophysicsHKA,2021.2.3,59.89383212385453,
5,nogo,silent.wav,,,,,7,1,57,4,,,,,,,,,,,,,,,,,,,256.59260437020566,None,256.5988406999968,None,None,,256.5988406999968,258.1074577001855,258.6239317001309,None,-0.0,1.2593018999323249,258.6239317001309,None,,,010,001,2021_Dec_01_1517,psychophysicsHKA,2021.2.3,59.89383212385453,
4,go,piano_min50db.wav,,,,,7,2,58,3,,,,,,,,,,,,,,,,,,,259.8937160699861,None,259.8988854000345,None,None,,259.8988854000345,261.4079009999987,261.92226970009506,None,-0.0,1.4790773999411613,261.92226970009506,None,,,010,001,2021_Dec_01_1517,psychophysicsHKA,2021.2.3,59.89383212385453,
7,nogo,silent.wav,,,,,7,3,59,6,,,,,,,,,,,,,,,,,,,263.4264230399858,None,263.4165639001876,None,None,,263.4165639001876,264.9240864000749,265.4452786000911,None,0.0,1.7088603000156581,265.4452786000911,None,,,010,001,2021_Dec_01_1517,psychophysicsHKA,2021.2.3,59.89383212385453,
6,nogo,silent.wav,,,,,7,4,60,5,,,,,,,,,,,,,,,,,,,267.15992337011266,None,267.1667958002072,None,None,,267.1667958002072,268.6741675999947,269.17867240007035,None,0.0,1.233567399904132,269.17867240007035,None,,,010,001,2021_Dec_01_1517,psychophysicsHKA,2021.2.3,59.89383212385453,
8,nogo,silent.wav,,,,,7,5,61,7,,,,,,,,,,,,,,,,,,,270.425788570079,None,270.4314673000481,None,None,,270.4314673000481,271.9410690001678,272.4602106001694,None,0.0,0.7581980000250041,272.4602106001694,None,,,010,001,2021_Dec_01_1517,psychophysicsHKA,2021.2.3,59.89383212385453,
3,go,piano_min40db.wav,,,,,7,6,62,2,,,,,,,,,,,,,,,,,,,273.22667737014126,None,273.23179360013455,None,space,1.0994380998890847,273.23179360013455,None,274.3803259001579,None,1.0,0.6230254999827594,274.3803259001579,None,,,010,001,2021_Dec_01_1517,psychophysicsHKA,2021.2.3,59.89383212385453,
2,go,piano_min30db.wav,,,,,7,7,63,1,,,,,,,,,,,,,,,,,,,275.0095862700837,None,275.0163515000604,None,space,0.9629007000476122,275.0163515000604,None,276.02680390002206,None,3.0,0.8933638001326472,276.02680390002206,None,,,010,001,2021_Dec_01_1517,psychophysicsHKA,2021.2.3,59.89383212385453,
,,,,,,,,,,,,,,,,,,,,,,,,,,,,,,,,,,,,,,,,,,,276.9256869000383,None,,,,,,,
